Timestamp (us),Gyroscope X (deg/s),Gyroscope Y (deg/s),Gyroscope Z (deg/s),Accelerometer X (g),Accelerometer Y (g),Accelerometer Z (g)
917428272,-0.521662,0.249247,-0.009101,-0.977279,0.168695,0.142709
917448252,-0.980531,0.065021,-0.097198,-0.976729,0.169423,0.144981
917468232,-1.490347,0.007481,0.069243,-0.975467,0.164386,0.145368
917488212,-0.628037,0.324470,0.054531,-0.975295,0.159555,0.146293
917508192,-0.499519,0.364565,-0.061172,-0.978922,0.165660,0.150610
917528172,-0.274040,0.620413,0.351864,-0.976719,0.161782,0.149183
917548151,-0.022943,0.469951,0.239352,-0.974521,0.153630,0.150131
917568131,0.359237,0.501689,0.272810,-0.975965,0.162671,0.147278
917588112,0.557980,0.532825,0.293476,-0.975245,0.170667,0.144168
917608091,0.740579,0.442828,0.213322,-0.977296,0.167596,0.141441
917628071,1.113765,0.399751,0.108356,-0.977770,0.166324,0.140080
917648051,1.563396,0.257776,-0.006727,-0.976773,0.175331,0.140602
917668031,1.082653,0.194340,0.021780,-0.976824,0.172595,0.139884
917688011,1.028651,0.026939,-0.056293,-0.976832,0.167858,0.140717
917707991,0.881988,0.180545,-0.174242,-0.976126,0.174473,0.134524
917727971,0.340772,0.291571,-0.058368,-0.977403,0.171337,0.141610
917747951,-0.025729,0.312838,-0.045448,-0.977159,0.165128,0.140360
917767931,0.263375,0.368627,-0.140193,-0.978723,0.165547,0.146344
917787910,0.324874,0.520961,-0.077713,-0.978601,0.166166,0.142165
917807891,0.073851,0.526450,0.017409,-0.976166,0.164465,0.139188
917827870,0.074092,0.579569,0.048727,-0.977444,0.168960,0.139983
917847850,-0.194829,0.679356,-0.083621,-0.976038,0.171866,0.143796
917867830,-0.337860,0.478228,0.075747,-0.978273,0.159126,0.138830
917887810,0.768822,0.392081,-0.009256,-0.979573,0.157505,0.137465
917907790,1.256616,0.311295,-0.116327,-0.976294,0.175949,0.137969
917927770,0.317851,0.398248,-0.041227,-0.976888,0.174614,0.142874
917947750,0.151772,0.281057,0.119679,-0.976100,0.158722,0.139389
917967730,0.921973,0.285510,0.010019,-0.977825,0.163496,0.139545
917987710,0.501884,0.238061,-0.000245,-0.977055,0.169765,0.137894
918007690,0.213200,0.326706,0.157693,-0.978282,0.171604,0.135883
918027670,0.312657,0.365058,0.179812,-0.978593,0.165321,0.136355
918047649,0.571796,0.168434,0.097062,-0.980626,0.168186,0.136061
918067630,0.495186,0.267511,0.091911,-0.973339,0.173056,0.135635
918087609,0.189247,0.060839,0.016683,-0.977526,0.178536,0.140405
918107589,0.058750,0.022894,-0.050827,-0.977393,0.170862,0.137162
918127570,0.676739,0.163401,-0.087707,-0.976119,0.166742,0.138908
918147549,1.156337,-0.076951,-0.273360,-0.974686,0.170644,0.141265
918167530,0.416404,0.086795,-0.161656,-0.979795,0.174017,0.139226
918187509,0.149313,-0.074684,-0.168025,-0.983311,0.161124,0.135070
918207489,0.645298,0.057483,-0.188099,-0.979180,0.162678,0.133727
918227469,0.508810,0.269369,-0.060973,-0.976470,0.172039,0.139434
918247449,-0.911355,-0.057187,-0.077012,-0.975984,0.178695,0.142139
918267429,-0.757237,0.048714,0.067532,-0.976194,0.167937,0.140811
918287409,0.341054,-0.029019,-0.085961,-0.977025,0.166664,0.137632
918307389,0.996893,-0.086260,-0.187332,-0.976775,0.169381,0.134628
918327369,0.258160,0.198195,0.055935,-0.978031,0.166131,0.136356
918347349,-0.061763,0.058689,0.111694,-0.981305,0.161730,0.136896
918367328,-0.473150,0.063495,0.208983,-0.979368,0.158594,0.137190
918387308,-0.633800,-0.013136,0.171863,-0.977631,0.168319,0.138349
918407288,-0.840039,-0.029204,0.166791,-0.977380,0.176430,0.138960
918427268,-0.969261,0.007723,0.230174,-0.977786,0.165595,0.140264
918447248,0.145705,-0.071469,0.206251,-0.977101,0.159113,0.141107
918467228,0.617751,-0.113675,0.061775,-0.977908,0.173258,0.140965
918487208,0.691630,0.095248,-0.134722,-0.972803,0.173891,0.141629
918507188,1.081132,0.318006,-0.098575,-0.974646,0.159901,0.145024
918527168,1.769368,0.884199,0.075985,-0.971748,0.148318,0.157339
918567126,2.391081,1.661226,0.491252,-0.977145,0.150317,0.152397
918587106,2.750067,2.364247,0.611187,-0.978925,0.159990,0.146179
918607086,3.632298,1.998258,0.204419,-0.979788,0.166379,0.143973
918627066,3.571684,2.058486,0.259575,-0.975204,0.184675,0.136766
918647046,3.346325,1.779630,-0.146162,-0.973389,0.179713,0.135976
918667026,4.504347,2.077300,-0.363713,-0.972843,0.184539,0.137235
918687006,5.104734,2.182143,-0.622329,-0.971344,0.186234,0.135150
918706986,5.859011,2.332129,-0.767829,-0.975894,0.173857,0.140884
918726966,5.754612,2.755991,-0.462409,-0.976175,0.164195,0.139915
918746945,5.378943,3.106800,-0.536190,-0.976755,0.158287,0.141475
918766925,5.206402,3.026429,-0.260114,-0.976229,0.161182,0.138563
918786905,3.831825,3.737429,-0.124173,-0.982714,0.166550,0.127427
918806885,2.601208,3.039502,-0.331477,-0.982487,0.188089,0.112192
918826865,0.896113,2.660953,-0.573498,-0.989431,0.195149,0.089151
918846845,0.953722,2.038975,-0.293179,-0.992575,0.182520,0.084451
918866825,0.142876,2.341363,0.348417,-0.977408,0.188846,0.098688
918886805,-2.801609,2.264364,0.669796,-0.980202,0.191756,0.105927
918906785,-7.471436,1.691439,0.976805,-0.993018,0.179902,0.110975
918926765,-6.033873,0.369281,0.204910,-0.983497,0.158257,0.102203
918946744,-3.207525,0.837904,0.326121,-0.980586,0.177828,0.108877
918966725,-3.148038,0.313727,0.088573,-0.979183,0.170312,0.127890
918986705,-3.255397,0.846861,0.846171,-0.973986,0.139030,0.127297
919006685,-1.285492,1.671522,0.930748,-0.980095,0.110413,0.144518
919026665,1.373088,1.849397,1.027083,-0.978407,0.116091,0.158859
919046644,2.867065,2.086833,1.498999,-0.978450,0.115297,0.165127
919066624,5.339258,2.815663,2.109903,-0.974809,0.102383,0.167734
919086604,9.604017,4.751546,2.714100,-0.966276,0.099902,0.181325
919106584,12.009174,6.050179,3.578593,-0.962899,0.109314,0.180496
919126564,12.667336,7.729101,3.983621,-0.968277,0.117433,0.178531
919146544,13.667626,8.724799,4.129670,-0.967294,0.156143,0.152618
919166524,12.901919,10.226079,4.200157,-0.974653,0.184851,0.115791
919186504,12.806930,11.609607,4.122368,-0.966905,0.198267,0.111797
919206484,13.962790,13.954050,3.339090,-0.963522,0.187387,0.120208
919226464,15.236816,14.952903,2.664384,-0.963251,0.169335,0.120996
919246444,17.307293,14.853148,3.421372,-0.968700,0.169063,0.117695
919266424,18.942160,14.805282,4.162118,-0.965433,0.175986,0.109700
919286404,18.110079,15.678396,4.346518,-0.959616,0.214674,0.101434
919306383,17.527039,16.388739,3.517167,-0.959402,0.215668,0.078093
919326364,18.176889,17.526924,3.769324,-0.984812,0.183737,0.062607
919346343,19.730423,17.736494,3.384757,-0.973917,0.203084,0.052710
919366323,23.455650,19.464111,1.373977,-0.952018,0.224346,0.073023
919386303,21.552296,22.242201,0.982178,-0.953461,0.295158,0.083225
919406283,13.777519,25.360977,0.109944,-0.925315,0.376989,0.097655
919426263,-2.008778,29.856024,0.909057,-0.901276,0.433803,0.083355
919446243,-26.601389,32.984833,4.999719,-0.943222,0.411310,0.023331
919466223,-37.814011,29.297943,8.564957,-0.990230,0.222451,-0.059062
919486203,-29.720541,26.114113,9.233372,-1.006233,0.058283,-0.086680
919506183,-12.670789,22.535072,9.598840,-1.051890,0.023178,-0.105546
919526163,5.994725,15.655340,10.512745,-1.046165,0.010993,-0.159415
919546143,18.265297,13.062657,9.804381,-1.026876,0.060568,-0.161006
919566123,20.483305,11.733110,10.579599,-1.021104,0.172518,-0.155346
919586103,8.280626,12.747742,11.653458,-0.961257,0.291529,-0.104795
919606082,-9.028137,13.309266,14.385987,-0.969151,0.300300,-0.048929
919626062,-17.724947,13.408354,14.620000,-0.963760,0.248811,-0.041009
919646042,-19.096609,13.888120,14.279075,-0.976125,0.234165,-0.047664
919666022,-19.895439,15.056538,14.054971,-0.954861,0.282054,-0.050873
919686002,-22.649548,15.414898,15.105570,-0.935958,0.295466,-0.046990
919705982,-20.958447,15.028700,16.046799,-0.951316,0.228947,-0.023887
919725962,-15.242093,13.735268,17.569244,-0.989492,0.144730,-0.023475
919745942,-9.162162,13.803309,19.748079,-0.984344,0.120954,-0.061145
919765922,-4.859547,14.585385,22.961815,-1.007164,0.170145,-0.067619
919785902,-6.281720,15.233582,26.465103,-1.021108,0.183285,-0.064203
919805882,-11.874739,17.388559,32.276798,-1.016409,0.208982,-0.022576
919825862,-17.005310,19.580395,37.067116,-1.002911,0.193586,0.044213
919845842,-17.819956,24.549673,42.389229,-1.034445,0.195925,0.108495
919865822,-21.522753,31.596447,49.369209,-1.030721,0.178432,0.195303
919885802,-32.355461,40.294037,58.371490,-1.014787,0.112869,0.244562
919905781,-33.758087,47.208755,68.281219,-1.118007,-0.033313,0.209008
919925762,-27.015326,56.834877,81.121071,-1.296520,-0.167029,0.386648
919945741,-9.265802,66.322594,93.328438,-1.187776,-0.161449,0.530403
919965721,-18.694908,85.942291,109.672150,-1.164560,0.001213,0.669136
919985701,-31.644398,107.623360,124.283905,-1.241997,0.198961,0.726599
920005681,-31.694672,117.540718,134.035858,-1.445728,0.244827,0.405473
920025661,-32.203442,117.928284,145.709076,-1.590008,-0.188112,0.473417
920045641,7.389973,98.803284,158.836548,-1.481542,-0.063019,-0.116185
920065621,142.019745,65.101036,125.827194,-1.442470,0.168610,-0.267464
920085601,186.399841,56.973339,77.554909,-1.109318,0.584529,-0.474350
920105581,109.398956,60.700970,37.868668,-0.970412,0.978617,-0.593780
920125560,40.898087,43.396599,-0.437747,-0.780136,1.112509,-0.384663
920145540,-32.269501,6.018690,-35.751308,-0.608075,0.997963,-0.332857
920165520,-74.059776,-36.900055,-63.278511,-0.542965,0.808444,-0.487320
920185500,-101.313828,-69.800583,-98.149437,-0.505201,0.688709,-0.539010
920205480,-111.549484,-96.379684,-132.487045,-0.461359,0.605976,-0.542200
920225460,-122.796143,-117.718178,-161.251556,-0.439407,0.577599,-0.532894
920245440,-121.832504,-138.521973,-184.454346,-0.348727,0.603817,-0.510552
920265420,-134.795685,-158.590576,-210.702866,-0.322922,0.686859,-0.434296
920285399,-133.573395,-177.439163,-242.173706,-0.391803,0.654834,-0.412897
920305379,-92.205254,-185.525909,-272.275909,-0.465173,0.597388,-0.232154
920325359,-34.271156,-192.010376,-288.635620,-0.694843,0.584492,-0.179359
920345339,-20.887550,-187.404007,-274.156952,-0.892364,0.087913,0.077278
920365320,54.755699,-195.800995,-255.627243,-1.207060,0.090737,0.069031
920385299,117.871651,-181.586563,-215.047775,-1.358489,-0.063633,0.096785
920405279,138.946686,-142.935959,-158.688431,-1.315726,0.502289,-0.214948
920425259,128.193115,-80.752647,-118.498695,-0.492682,0.546555,-0.043621
920445239,56.254807,-9.629652,-39.303951,-0.244217,0.119783,0.261677
920465219,-6.438959,45.605385,21.931684,-0.455580,0.024305,-0.127777
920485199,-20.825684,78.742920,77.301971,-0.702324,0.095488,-0.193782
920505179,-29.573055,134.119965,100.534691,-1.347728,0.236035,1.104542
920525159,19.810740,10.977170,16.786024,-2.742216,-0.215193,0.813349
920545139,93.049347,80.602028,42.840645,-1.014627,-0.167978,-0.368784
920565119,106.232353,77.091965,44.435589,-0.405971,0.691110,-0.459598
920585099,104.930328,52.330864,46.321636,-0.806930,0.749140,-0.399069
920605079,42.586956,63.481743,48.361347,-1.078768,0.327885,-0.400673
920625059,45.916889,65.004059,42.236954,-1.241232,0.552153,-0.128121
920645039,42.847904,46.880623,14.523295,-0.951981,0.648723,-0.189643
920665019,8.537528,41.552547,10.558434,-0.898542,0.810779,-0.099041
920684998,-54.009880,27.778902,16.414169,-1.006472,0.577282,-0.041707
920704979,-81.672104,27.904943,27.856434,-1.091303,0.035730,-0.188554
920724958,-20.638123,25.580950,29.109503,-1.101888,-0.422512,-0.163592
920744938,50.660141,24.247082,5.679312,-1.035939,-0.136667,0.005777
920764918,46.637402,19.871138,0.194785,-1.061704,0.353845,0.118348
920784898,-26.841566,22.263412,12.803531,-0.878910,0.308629,0.032589
920804878,-53.185631,22.570835,26.819269,-0.927004,0.021580,0.120607
920824858,-41.971569,25.526052,28.932394,-1.028223,-0.190074,0.179000
920844838,-19.416246,28.543648,23.218018,-1.009748,-0.166440,0.161415
920864818,-7.961879,34.704334,28.322289,-0.970662,-0.095359,0.163050
920884798,-10.870064,38.727989,33.407005,-0.937826,-0.019145,0.119768
920904778,-17.111376,44.759460,41.368793,-0.960600,-0.047237,0.163497
920924758,-16.458565,49.378571,50.980404,-0.946157,-0.110872,0.209018
920944737,-8.532942,52.206387,56.923908,-0.911158,-0.153227,0.228800
920984698,9.876358,62.908215,67.482956,-0.903418,-0.072433,0.182538
921004677,9.071167,73.674545,78.196793,-0.928729,-0.034686,0.152385
921024657,-6.888267,87.712784,89.332054,-0.987479,0.120216,0.254328
921044637,-28.397848,101.278648,97.771378,-1.150812,0.332139,0.358364
921064617,-53.130905,114.513611,103.989273,-1.412307,0.726145,0.403185
921084597,-75.210945,128.255600,107.009491,-1.504172,0.898199,0.417782
921104577,-98.171707,131.838898,115.895538,-1.474263,0.840633,0.305449
921124557,-114.379066,120.571312,121.044434,-1.443350,0.416023,-0.117348
921144537,-54.331635,85.103645,115.908943,-1.338573,0.213430,-0.558051
921164517,33.854549,42.485386,90.638962,-1.112447,0.339895,-0.610513
921184497,20.868156,31.759615,49.636311,-0.685232,0.410517,-0.386332
921204476,8.243576,13.822445,3.437692,-0.476820,0.670737,-0.496008
921224456,-22.257393,-12.404452,-36.072094,-0.353977,0.943004,-0.498801
921244436,-53.430695,-49.744102,-70.381912,-0.239263,1.194547,-0.547255
921264416,-100.756302,-89.254570,-98.578423,-0.222805,0.891398,-0.543346
921284396,-104.361679,-116.145996,-122.258629,-0.173321,0.627816,-0.648075
921304376,-68.193901,-123.079132,-153.510483,-0.246611,0.196480,-0.496435
921324356,-22.975878,-129.469818,-171.231125,-0.420004,0.266981,-0.446756
921364316,63.420071,-111.459290,-148.361176,-0.838015,0.570182,-0.436809
921384296,63.698235,-94.421112,-88.530029,-0.859888,0.726088,-0.337193
921404276,41.111092,-71.364838,-40.305031,-0.706782,0.840286,-0.371435
921424256,36.193287,-58.084423,-32.339390,-0.586135,0.759591,-0.534369
921444236,55.376251,-57.257034,-38.811241,-0.581465,0.539951,-0.385955
921464216,111.421219,-65.568489,-40.846214,-0.883903,0.128516,0.303323
921484196,59.903091,-31.282202,-22.617611,-1.681311,-0.082635,0.284448
921504175,91.020401,6.012555,-9.803946,-1.860184,0.914603,0.412059
921524155,24.627094,-2.652607,-36.779823,-0.613069,0.921560,0.018180
921544135,2.291036,-12.226639,-23.161257,-0.300483,0.690674,0.023531
921564116,-12.995559,-1.626687,3.760049,-0.914747,0.239937,0.006718
921584095,-2.349688,-0.391670,-4.613625,-1.334921,-0.116435,-0.062007
921604075,25.856760,-0.775477,-17.334669,-1.077378,0.019472,0.025087
921624055,26.185942,1.869629,-7.610032,-0.859332,0.206611,0.079810
921644035,10.580048,5.206625,-4.440102,-0.915610,0.100012,0.204694
921664015,7.425839,8.610675,-4.569062,-1.011536,0.009013,0.210595
921683995,12.774393,11.639465,-1.016000,-1.014295,0.029666,0.187534
921703975,17.758289,13.676109,-0.282638,-0.926126,0.078055,0.157934
921723955,13.956817,17.340897,1.227528,-0.951465,0.102995,0.117106
921743935,9.763683,17.162304,2.602909,-0.988805,0.136740,0.032042
921763915,10.210028,15.797561,0.560942,-0.995512,0.200684,-0.012616
921783895,9.555083,13.211205,-3.240266,-0.980271,0.308728,-0.047207
921803874,2.723473,11.617706,-5.263169,-0.974373,0.392832,-0.073330
921823854,-2.060194,10.084795,-7.175526,-0.970073,0.442677,-0.058121
921843834,-1.846660,10.639315,-11.362671,-0.926953,0.453616,0.013300
921863814,-6.904737,11.661455,-14.921636,-0.914894,0.442420,0.074799
921883794,-10.002238,8.953920,-15.774390,-1.009856,0.337255,-0.078536
921903774,-9.424145,8.348089,-15.386354,-1.046309,0.109659,-0.131406
921923754,2.719679,7.635093,-15.492833,-0.974061,-0.008475,-0.073373
921943734,11.449611,6.119731,-12.891984,-0.996549,0.010767,-0.023441
921963714,4.361268,7.522300,-9.888787,-0.983808,0.039793,0.045922
922003674,-8.557897,12.745817,3.359803,-1.041280,0.095461,-0.057315
922023656,-19.067158,11.767490,8.153934,-1.081908,0.157106,-0.157021
922043645,-18.737804,10.648234,6.636408,-1.032078,0.209086,-0.182503
922063633,-21.002256,8.498773,7.345941,-1.037084,0.207316,-0.148835
922083595,-32.603992,7.553172,5.740864,-1.027000,0.185910,-0.119099
922103575,-26.248831,7.455683,6.500829,-0.993712,0.142910,-0.064906
922123555,-23.774982,7.166362,9.219746,-0.978868,0.134858,-0.001675
922143535,-26.546522,6.670791,12.052654,-0.986901,0.076702,0.028255
922163514,-25.394592,5.788839,15.323041,-1.034872,0.058423,0.033296
922183495,-23.937302,1.263863,17.260841,-1.014821,0.083212,-0.006352
922203475,-17.965765,0.291154,16.295063,-0.985100,0.075669,0.007200
922223455,-17.603861,3.965071,17.183775,-0.977097,0.079315,0.045106
922243434,-18.783512,5.258294,19.204103,-0.993305,0.126266,0.035138
922263414,-22.141327,2.473425,18.987570,-0.959432,0.174435,-0.061535
922283394,-19.372593,2.147043,17.173603,-0.938181,0.157586,-0.067710
922303375,-12.666097,2.482976,13.047880,-0.924307,0.172689,-0.009101
922323354,-6.119020,4.225855,11.373208,-0.907872,0.234264,-0.010114
922343334,-4.283685,6.771644,10.598921,-0.930446,0.363401,-0.038643
922363314,-4.510001,7.603812,6.039981,-0.893087,0.452186,-0.018551
922383294,-6.012763,5.999184,0.981707,-0.897043,0.471470,-0.003381
922403274,-4.883207,5.113875,-0.657809,-0.940307,0.399549,-0.051626
922423254,2.110664,4.841912,-3.024678,-0.949417,0.353889,-0.091852
922443234,7.246966,3.921451,-3.527815,-0.961604,0.325289,-0.099278
922463214,10.136404,3.250501,-1.996101,-0.983381,0.313657,-0.082750
922483194,9.827011,1.839877,0.240222,-1.001957,0.319808,-0.071712
922503173,8.945448,0.543420,-0.278372,-1.004276,0.300460,-0.088008
922523153,8.561509,-1.238930,-2.185350,-0.993453,0.266380,-0.077207
922543133,7.164452,-3.752798,-3.967076,-0.987079,0.269134,-0.086622
922563113,6.891562,-5.798469,-5.535769,-0.974219,0.269678,-0.070655
922583093,6.184334,-7.840798,-5.594165,-0.989794,0.233535,-0.066270
922603073,7.226654,-7.662958,-7.354432,-0.988980,0.217519,-0.055496
922623053,8.248537,-8.723994,-8.384146,-0.981406,0.223391,-0.054653
922643033,7.550776,-10.478498,-8.224651,-0.985494,0.202996,-0.045802
922663013,6.827059,-11.085919,-8.154969,-0.972053,0.173814,-0.028643
922682993,8.957845,-14.165552,-8.679381,-0.986225,0.245355,-0.079092
922702973,9.043293,-16.223618,-11.016751,-0.990973,0.309101,-0.073790
922722953,4.751868,-17.041439,-12.490080,-0.976414,0.283940,0.017375
922742933,5.374043,-15.707522,-12.647051,-0.955726,0.170909,0.051744
922762913,9.930305,-14.671686,-12.075222,-0.989543,0.138635,0.001609
922782892,13.044127,-14.305642,-12.226680,-0.989642,0.253647,-0.029828
922802872,9.532900,-16.915731,-11.766586,-0.955753,0.305014,0.008257
922822852,-1.383699,-17.965670,-10.763226,-0.964074,0.238598,0.045569
922842832,-2.336501,-14.387504,-9.987886,-1.002072,0.185555,0.023720
922862812,-2.249129,-12.279167,-8.614305,-0.987670,0.170166,0.030032
922882795,-1.999579,-10.820312,-7.183677,-0.969513,0.103320,0.043892
922902773,1.109442,-10.582224,-4.259500,-1.006216,0.041664,0.039879
922922752,7.602029,-10.589001,-2.072083,-1.009652,0.033245,0.037979
922942732,12.847835,-9.551287,-2.716122,-0.962421,0.096574,0.055490
922962712,16.630941,-8.896568,-3.788808,-0.962928,0.139427,0.076597
922982692,21.568939,-6.371269,-3.689142,-1.015599,0.129679,0.072136
923002672,28.431631,-5.913765,-2.515602,-1.022760,0.076412,0.009425
923022652,32.579273,-7.151444,0.861664,-1.037478,0.032704,-0.070527
923042632,36.005085,-9.890816,4.333714,-1.030221,0.045824,-0.170877
923062612,25.968966,-11.557347,13.227356,-1.093865,-0.064071,-0.062101
923082591,12.356263,-8.074701,16.402910,-0.931568,0.106051,0.178606
923102571,-4.361539,-7.227495,15.198883,-0.826336,0.261559,0.274897
923122551,-22.776867,-6.351177,18.065569,-0.924039,0.294116,0.235428
923142531,-29.103842,-5.139745,19.398561,-0.999758,0.202738,0.134199
923162511,-23.726099,-3.890261,18.984913,-0.989872,0.186982,0.007624
923182491,-20.736773,-0.975202,19.047989,-0.970016,0.208901,-0.021481
923202471,-24.849649,-0.747321,22.268566,-0.979930,0.195029,0.038534
923222451,-29.149107,-0.707266,25.152937,-0.965802,0.158135,0.112026
923242432,-26.943960,-0.095625,27.186111,-0.949728,0.112231,0.198638
923262411,-20.056847,2.052559,29.491262,-0.943587,0.066267,0.267844
923282391,-8.948909,5.631788,31.782938,-0.955607,-0.058638,0.341016
923302372,0.337837,12.970948,37.926552,-0.958840,-0.102920,0.397901
923322351,-0.313450,25.896173,47.692368,-0.980309,-0.055003,0.553543
923342331,-42.322987,53.557461,56.294914,-1.053774,-0.061926,0.738389
923362311,-69.949150,82.743835,68.871056,-1.183611,-0.155632,0.767617
923382291,-38.932991,106.222801,86.280037,-1.394260,-0.026665,0.536900
923402271,-13.180511,127.922440,93.341438,-1.533574,0.506558,0.144269
923422251,-13.959159,144.005920,91.822792,-1.807162,0.888287,-0.260110
923442231,-14.062714,131.219543,91.408463,-1.979841,0.786153,-0.333458
923462210,14.256029,121.018608,82.498215,-1.749164,0.464089,-0.365622
923482190,28.724173,124.883926,72.056892,-1.527188,0.689865,-0.407175
923502170,24.196781,120.726288,67.972214,-1.398689,1.050026,-0.446367
923522150,2.485119,108.492920,68.218094,-1.346372,1.107249,-0.537329
923542130,-0.271633,88.338593,67.709328,-1.297037,0.808539,-0.561754
923562110,26.693953,71.072044,57.492500,-1.227289,0.580879,-0.724510
923582090,54.214485,68.737839,45.997017,-1.080155,0.741299,-0.720434
923602070,62.397182,57.861164,46.567204,-0.748645,0.885546,-0.781316
923622050,49.959557,42.783657,51.487152,-0.498828,0.892031,-0.790015
923642030,28.208439,26.357166,58.705433,-0.244030,0.725987,-0.609588
923662010,16.584812,10.441452,61.769379,0.058553,0.515648,-0.532439
923681990,12.211641,3.485425,63.727909,0.322544,0.414087,-0.389493
923701970,10.700970,1.443565,61.404800,0.391341,0.281558,-0.212921
923721949,12.070788,-7.737220,54.448235,0.416316,0.209638,-0.158955
923741929,12.448709,-15.388376,53.506706,0.511660,0.209570,-0.055583
923761909,8.999524,-20.468742,60.016052,0.514251,0.103753,0.051032
923781889,4.531157,-29.224361,57.092899,0.379501,-0.002974,0.082907
923801869,0.421043,-34.518299,49.725266,0.295834,0.060720,0.055681
923821849,-4.547936,-36.813622,41.122509,0.167376,0.135286,0.043316
923841829,-3.568034,-36.366844,30.783783,0.028333,0.228426,0.019476
923861809,6.069986,-34.757675,17.542002,-0.056339,0.396170,-0.048693
923881789,8.262377,-32.875027,4.435798,-0.143506,0.679740,-0.117075
923901769,-4.176856,-21.688461,-8.351309,-0.232110,0.836692,-0.168068
923921748,-13.225311,-8.716386,-22.991085,-0.404185,0.906806,-0.295104
923941729,-26.090172,-0.077462,-31.762352,-0.518741,0.913953,-0.342218
923961708,-34.228893,0.958612,-36.279663,-0.534407,0.841547,-0.399742
923981688,-42.979275,9.541745,-38.883980,-0.584430,0.850708,-0.382362
924001669,-59.353508,14.138146,-35.219425,-0.553838,0.829043,-0.362401
924021648,-69.058083,16.224989,-28.948208,-0.498734,0.782123,-0.404237
924041628,-75.019089,15.472569,-29.420475,-0.461108,0.639431,-0.364130
924061608,-71.004601,11.886531,-31.703648,-0.400324,0.535952,-0.321744
924081588,-62.752907,9.593832,-34.628716,-0.321815,0.531875,-0.297649
924101568,-58.240589,6.381278,-36.012108,-0.255466,0.594341,-0.266399
924121548,-51.093651,2.917210,-41.718906,-0.270750,0.659321,-0.321374
924141528,-50.880039,-7.641139,-53.429680,-0.405090,0.577771,-0.350334
924161508,-33.336014,-22.494213,-62.948883,-0.561644,0.532501,-0.396529
924181488,-5.555183,-35.954094,-76.252113,-0.723023,0.469085,-0.400554
924201466,24.682602,-48.950588,-98.195694,-0.825970,0.510534,-0.386503
924221446,33.139175,-59.950783,-116.874557,-0.960666,0.708078,-0.384233
924241426,15.691848,-75.519203,-122.615196,-1.128942,0.940173,-0.408432
924261406,-18.172848,-91.379807,-120.302406,-1.291394,0.971171,-0.358285
924281386,-46.256413,-102.206734,-116.482635,-1.361760,0.675590,-0.189456
924321346,-15.362186,-108.635597,-105.480156,-1.190296,0.417643,-0.118838
924341326,13.983559,-104.763222,-107.448410,-1.290080,0.328878,-0.053393
924361306,44.168446,-106.805534,-101.290054,-1.428801,0.363440,-0.066051
924381286,55.168850,-108.262093,-89.273033,-1.523788,0.417218,0.035371
924401266,49.766308,-97.106812,-74.909691,-1.389415,0.300424,0.226269
924421246,34.223503,-84.075371,-58.594448,-1.207321,0.209602,0.153460
924441226,-5.162611,-56.382576,-43.971436,-1.234543,-0.088633,0.347166
924461205,-18.707735,-21.958645,-22.254709,-1.558132,-0.204361,0.907481
924481185,-16.924526,-33.046246,-13.147348,-1.264399,0.213440,0.549875
924501165,-38.545391,-2.719907,-12.220366,-0.626792,0.272578,0.442970
924521145,-66.376892,-11.457226,0.454089,-0.574433,0.178846,0.377024
924541125,-75.575607,-13.154778,8.381373,-0.857592,-0.015528,0.138671
924561105,-27.911234,-4.436220,-1.630151,-1.082434,-0.234842,0.075386
924581085,38.478603,-5.314066,-15.540942,-1.070377,-0.113695,-0.002677
924601066,68.378937,-3.043689,-27.261147,-0.977746,0.284945,0.055869
924621045,58.056675,2.564272,-29.521015,-0.907903,0.583973,0.124415
924641025,29.897091,4.767733,-22.066013,-0.918800,0.636061,0.191836
924661005,-5.837752,-2.664134,-13.992137,-0.968168,0.458028,0.136910
924680985,-22.362204,-6.223104,-11.460215,-1.011622,0.224341,0.055230
924700965,-9.929376,-5.483973,-12.145054,-1.015434,0.031544,0.062379
924720945,7.988661,-2.456981,-14.436383,-1.010603,0.018215,0.102773
924740925,9.642641,-1.423970,-15.283746,-0.966344,0.091601,0.179626
924760905,1.810870,1.646309,-10.115582,-0.931747,0.063412,0.272556
924780885,-8.611648,3.080621,-2.538335,-0.937643,-0.038285,0.321259
924800864,-8.661067,3.817683,3.627971,-0.975539,-0.144007,0.325284
924820844,-0.365466,7.416363,7.179904,-0.998863,-0.182861,0.321004
924840825,7.636280,11.565443,11.904579,-0.961791,-0.142147,0.310739
924860805,7.517272,19.509542,19.200296,-0.941020,-0.043974,0.318351
924880784,1.257704,29.692629,27.581837,-0.946529,-0.040366,0.304957
924900765,-8.879780,37.734901,38.619293,-0.947335,-0.138901,0.348503
924920745,-3.602719,36.739124,49.743263,-0.971743,-0.337216,0.379431
924940725,13.564453,38.721313,61.932983,-1.015193,-0.524998,0.464790
924960705,25.920355,41.910439,75.068512,-1.117799,-0.420754,0.543025
925000665,25.436617,74.331825,92.310051,-1.477318,0.523401,0.317097
925020644,14.972480,75.735817,95.313248,-1.890566,0.364887,0.156495
925040624,23.734787,60.571087,100.753685,-1.625719,0.193425,-0.068304
925060604,74.838005,43.614326,90.160355,-1.172170,0.146971,-0.345240
925080584,114.083534,16.117268,65.362892,-0.761344,0.298729,-0.553246
925100573,122.299522,-5.016429,38.964149,-0.404623,0.592167,-0.638261
925120544,127.385010,-25.043612,13.540389,-0.227639,0.671839,-0.508962
925140523,140.244537,-69.436554,-4.723476,-0.231072,0.563014,-0.452865
925160503,147.953857,-108.811279,-25.921637,-0.302998,0.608514,-0.481415
925180483,153.728683,-150.147858,-51.192341,-0.318886,0.450260,-0.467005
925220443,226.406296,-207.917740,-77.992661,-0.576812,0.308593,-0.493510
925240423,280.309753,-222.189621,-89.806610,-0.829699,0.332187,-0.456139
925260403,328.758362,-209.495102,-88.751526,-1.100707,0.377297,-0.482245
925280383,365.878387,-169.162613,-68.376839,-1.151833,0.574473,-0.328178
925300363,353.145996,-114.464455,-47.925377,-0.934359,0.969167,-0.126929
925320343,271.584442,-66.162857,-37.728806,-0.732109,1.155766,-0.123608
925340323,131.760361,-16.803839,-31.216293,-0.611011,0.882088,-0.215434
925360303,44.936035,9.141310,-17.731379,-1.030982,0.575585,0.515571
925380283,12.462523,-32.288582,-7.555850,-1.699873,0.711533,0.517666
925400262,-1.672699,-42.754459,-35.351189,-1.259686,0.207647,0.094578
925420243,6.923506,-9.772724,-52.122330,-0.637501,0.165736,-0.028797
925440223,51.963402,8.647836,-53.159576,-0.534007,0.792072,-0.014524
925460202,37.739098,15.747359,-45.890949,-0.888044,0.797347,0.120564
925480183,-0.205067,8.878668,-43.582474,-1.060766,0.350256,0.136892
925500162,-8.480505,4.848103,-31.875980,-1.115656,-0.012736,0.058475
925520142,9.761724,-1.957273,-19.913120,-1.051454,-0.173785,-0.049227
925540122,42.015648,-2.507916,-24.199936,-1.011869,-0.134827,-0.141931
925560102,64.233696,2.339120,-29.012493,-0.988114,0.050319,0.080099
925580082,67.066711,1.576122,-24.228285,-0.962431,0.264726,0.266172
925600062,53.142036,-1.090885,-21.268078,-0.980874,0.233522,0.283328
925620042,46.745594,-3.350101,-19.167717,-0.966287,0.043443,0.174245
925640022,58.471771,-1.585679,-14.383303,-0.989652,-0.144587,0.139577
925660002,70.982132,3.746624,-9.939268,-0.991133,-0.055756,0.075343
925679982,72.376831,7.169123,-6.807890,-1.002155,0.077156,0.044146
925699962,57.275440,7.198825,-4.861438,-0.994056,0.109096,0.024110
925719942,45.066647,1.555701,1.613475,-1.015328,-0.020921,-0.014913
925739922,53.959789,-1.100434,6.409992,-1.065286,-0.202060,-0.074009
925759902,75.454712,-3.952204,6.909024,-1.071053,-0.152862,-0.130783
925779882,79.836998,-3.393846,9.683142,-1.027355,0.118291,-0.181360
925799861,59.622169,-0.212702,16.044237,-0.974581,0.316955,-0.103505
925819841,32.046886,-0.581653,24.133392,-0.965517,0.329708,0.003668
925839821,11.123188,3.395744,30.760090,-0.949501,0.118700,0.176641
925859801,-2.299865,9.330434,39.894650,-0.961916,-0.163061,0.367657
925879781,-3.685017,21.968391,52.384766,-0.957285,-0.415941,0.435445
925899761,8.213436,25.304459,68.453354,-1.051184,-0.322755,0.304622
925919741,43.307785,20.776236,80.434570,-1.163330,0.046553,0.039923
925939721,94.118057,-1.791652,84.234138,-1.395385,0.147913,-0.310797
925959701,172.792801,-34.375187,71.022560,-1.456725,0.123311,-0.377014
925979681,266.330017,-60.622021,43.979309,-1.184897,0.031262,-0.544093
925999661,346.510559,-87.196930,21.969225,-1.002871,-0.185400,-0.803203
926019640,421.420380,-108.387238,2.201620,-0.852665,-0.091605,-0.891430
926039620,448.690430,-120.266762,-15.706855,-0.730493,0.174650,-0.851797
926059601,431.527405,-135.416412,-21.223770,-0.781353,0.555229,-0.789417
926079581,396.273499,-157.299835,-12.756460,-0.892121,1.044831,-0.592077
926099560,291.684875,-168.299728,3.087695,-0.794708,1.076318,-0.298540
926119540,222.956940,-167.111359,10.582054,-0.746633,0.609087,-0.186016
926139520,228.200714,-163.695419,-1.894089,-0.839443,0.108491,-0.276104
926159500,283.292694,-144.025330,-30.250093,-0.841090,-0.049291,-0.456135
926179480,319.648102,-121.709236,-49.111443,-0.781300,0.366793,-0.545688
926199460,316.660156,-109.240692,-65.597168,-0.759821,0.927051,-0.451227
926219440,225.361801,-82.948395,-75.993980,-0.579321,1.414963,-0.147521
926239420,85.357605,-27.082190,-51.797588,-0.581777,1.076126,0.310464
926259400,-45.856178,9.598861,-11.017344,-0.840025,1.063320,-0.149378
926279380,-85.004318,25.745262,-5.302056,-0.991311,1.024814,0.476555
926299360,-130.629929,-17.069746,-6.010385,-1.171517,0.129354,-0.037136
926339320,49.185013,-10.386306,-15.813728,-1.126740,-0.717755,-0.184385
926359300,130.649261,-2.567008,-29.168324,-0.996512,-0.215758,-0.196698
926379279,139.346741,4.247239,-40.931553,-0.899575,0.545227,-0.124784
926399259,76.851524,-2.242282,-26.180798,-0.928062,1.039316,0.002380
926419239,-23.048082,-12.871749,-10.310870,-0.999216,0.777616,0.070924
926439219,-60.178612,-16.785540,-4.297233,-0.969857,0.297580,-0.004335
926459199,-31.397366,-10.663219,-1.574463,-1.028052,-0.154468,-0.007013
926479179,27.699587,-5.887931,-17.281576,-1.043403,-0.170311,0.080220
926499159,57.734596,-5.182890,-23.856665,-0.964580,0.189049,0.120287
926519139,45.028999,-5.613568,-22.209080,-0.902571,0.315298,0.167648
926539119,21.927107,-9.351038,-19.139959,-0.908258,0.163173,0.124886
926559099,19.905918,-12.388508,-13.017267,-1.046291,-0.066421,-0.008864
926579079,27.220318,-2.563873,-4.504437,-1.147544,-0.229774,0.111941
926599059,30.670862,0.202118,-1.357087,-0.964418,-0.064768,0.227465
926619039,22.093494,1.226724,-0.515553,-0.868931,0.062782,0.240059
926639019,5.905039,3.082105,4.335921,-0.960940,0.128280,0.235298
926658999,-6.325799,4.304004,9.208439,-0.984146,0.096485,0.174418
926678979,-4.636777,7.473699,10.552870,-0.955968,0.096266,0.055529
926698959,-3.852309,10.271064,10.109604,-0.986716,0.227324,0.012051
926718939,-12.132057,8.616402,6.937103,-0.998852,0.403178,-0.045540
926738919,-27.953516,8.624730,6.556299,-0.987963,0.435556,-0.056751
926778878,-37.804928,6.317004,7.679571,-0.995040,0.220274,0.031459
926798858,-25.335632,3.231411,4.777329,-0.987540,0.123777,0.078135
926818838,-5.149857,-1.616027,0.400660,-0.978610,0.129266,0.058555
926838818,15.565964,1.918966,-5.120841,-0.958639,0.138407,0.048382
926858798,25.177711,0.958112,-7.770018,-0.953691,0.131759,0.051521
926878778,27.008434,4.026053,-7.467536,-0.965708,0.129763,0.085511
926898758,20.812288,11.498439,-5.701295,-0.963049,0.083805,0.139622
926918738,12.973227,14.918389,0.266248,-0.982455,0.021604,0.151516
926938718,13.857220,16.817324,6.070302,-0.974017,-0.009630,0.200164
926958698,11.635408,17.376556,9.063873,-0.959214,-0.013058,0.190547
926978678,9.033751,19.104980,13.858930,-0.973518,0.019269,0.136048
926998658,7.310121,20.921906,17.933186,-0.978224,0.113053,0.041628
927018638,5.159038,22.894272,17.097715,-0.946864,0.197969,0.001488
927038618,0.815109,25.041632,16.210562,-0.937086,0.307707,-0.024242
927058598,-4.374022,27.910007,12.848322,-0.912022,0.416561,0.007335
927078577,-9.720779,30.104361,8.920933,-0.899080,0.373277,0.073123
927098558,-5.143097,28.956135,6.154065,-0.924734,0.279074,0.076911
927138517,30.268906,20.734257,9.432740,-1.099689,0.010995,-0.235474
927158497,37.475830,16.361200,14.097261,-1.082714,0.037799,-0.331815
927178478,34.835979,13.385759,16.686005,-1.020380,0.204941,-0.336895
927198457,18.711878,9.393803,15.899645,-1.033211,0.469137,-0.329847
927218437,-10.262440,5.317442,12.613729,-0.994454,0.637743,-0.201667
927238417,-32.299736,2.486587,10.443117,-0.944559,0.567936,-0.136207
927258397,-33.403767,3.801139,7.438032,-0.941659,0.381330,-0.054934
927278377,-20.411644,3.979160,3.988336,-0.931990,0.254558,0.022096
927298357,-8.560698,4.428393,2.413712,-0.919953,0.180883,0.031038
927318337,-8.299917,6.774180,5.743304,-0.930960,0.158314,0.010522
927338317,-13.446615,10.155092,12.070828,-0.965047,0.116076,-0.003075
927358297,-14.042658,13.359221,16.829664,-0.966316,0.083722,-0.006972
927378277,-12.527484,16.088724,21.102375,-0.971793,0.050351,0.010178
927398257,-12.474782,17.433886,26.924902,-0.978765,0.031103,0.018282
927418236,-24.723969,20.778330,32.577011,-0.944884,0.071403,0.069663
927438216,-44.015255,31.656231,42.298630,-0.952798,0.120868,0.067546
927458197,-38.956966,24.045012,52.565380,-0.987460,0.046945,0.060861
927478176,-40.419006,25.814320,65.310242,-1.008855,-0.074925,-0.036946
927498156,-37.404602,28.658184,81.148582,-1.227813,-0.190532,0.007441
927518136,-29.620068,35.450542,91.672585,-1.146333,-0.044557,0.288610
927538116,-44.580830,58.089890,103.370377,-1.076870,0.136589,0.752311
927558096,-66.739098,85.463585,113.463318,-1.200037,0.294578,0.745244
927578076,-88.886909,105.966087,127.625259,-1.486190,0.233227,0.429880
927618050,-56.305653,83.632095,172.010696,-1.686063,0.075188,0.244488
927638038,24.381222,63.591133,167.599197,-1.461523,-0.067480,0.069029
927657997,132.970078,47.081272,130.673492,-1.225793,0.105133,-0.176963
927677977,201.212204,39.121586,78.399124,-0.980780,0.365715,-0.291143
927697957,169.068298,20.552853,40.092503,-0.752106,0.948632,-0.575758
927717937,101.810913,38.274426,-1.682777,-0.700658,1.092153,-0.324366
927737917,26.693373,3.423454,-29.709028,-0.701476,0.943292,-0.259767
927757897,-15.461331,-26.678204,-49.216969,-0.646683,0.795505,-0.401442
927777876,-37.427055,-53.833099,-67.955521,-0.600209,0.688088,-0.453666
927797857,-41.574306,-91.817787,-98.418617,-0.560766,0.587821,-0.529294
927817836,-48.314869,-115.329224,-124.717834,-0.509425,0.543515,-0.551909
927837816,-54.469231,-138.959061,-142.710770,-0.533349,0.515979,-0.533708
927857796,-57.763084,-161.210953,-165.762390,-0.523218,0.529948,-0.436158
927877776,-57.715080,-181.196564,-188.039734,-0.536128,0.534834,-0.395385
927897756,-32.932701,-188.081848,-209.163345,-0.548161,0.552390,-0.351197
927917736,-20.001318,-186.748032,-217.345154,-0.648105,0.678583,-0.198914
927937716,-5.294809,-193.882874,-218.855408,-0.851503,0.736451,-0.149191
927957696,-11.325816,-186.205017,-213.071686,-0.957230,0.260035,0.014753
927977676,-14.135249,-163.657547,-189.344940,-1.020990,0.103690,0.000355
927997656,4.654529,-142.017212,-177.081207,-1.004149,0.169769,0.010319
928017636,14.219347,-119.557205,-153.943649,-0.944650,0.383781,-0.005103
928037616,14.132000,-89.917648,-128.737610,-0.682780,0.377887,-0.018321
928057596,-15.004368,-38.221931,-80.318779,-0.595035,0.102903,0.123233
928077576,-25.385803,-1.482423,-29.005163,-0.777329,-0.088966,0.129857
928097556,-13.510136,24.567579,9.303901,-0.795823,-0.090214,0.026948
928117536,5.756948,47.674965,47.668247,-0.783982,0.029960,-0.089164
928137516,33.040096,74.040741,67.140198,-0.891337,0.119314,0.069916
928157495,30.113596,79.047325,30.308466,-1.999354,-0.191346,1.269512
928177476,127.856461,26.265371,0.697913,-1.648897,-0.025168,0.313514
928197456,121.958374,72.599609,24.584705,-0.577928,0.416511,-0.037891
928217436,87.402100,64.458900,57.557205,-0.733653,0.691438,-0.072509
928237416,56.215897,51.494331,60.143169,-0.948828,0.287427,-0.156653
928277376,24.716673,65.472183,42.462761,-1.189023,0.300957,-0.134249
928297356,8.375324,56.016350,24.150597,-0.944652,0.486727,-0.154740
928317336,-7.443374,39.569412,17.015781,-0.842048,0.653625,-0.050147
928337315,-58.050667,31.217991,24.025711,-0.947176,0.662659,-0.081046
928357296,-73.178513,30.668903,36.173836,-1.144420,0.079001,-0.159953
928377276,-17.495926,27.182182,24.004442,-1.139741,-0.368046,-0.244368
928397255,53.821594,23.435558,6.915102,-0.996680,0.041728,-0.120897
928417235,67.410568,20.823193,-3.983021,-1.022048,0.467377,-0.084213
928437215,14.736199,18.364855,2.140620,-1.006372,0.607045,-0.052702
928477175,-43.252754,13.891611,17.241470,-1.000479,0.082594,-0.022247
928497155,-17.864231,13.062502,10.852134,-1.035693,-0.038313,0.026434
928517135,-2.878208,13.072043,8.128917,-0.982907,0.055689,0.058408
928537115,-1.258537,14.961693,8.493425,-0.975528,0.062786,0.067964
928557094,-11.439429,17.934225,14.654219,-0.982802,0.032774,0.095263
928577075,-18.652420,22.428673,24.324930,-0.977465,-0.105668,0.173396
928597055,-17.264677,28.156063,32.866020,-0.964561,-0.273393,0.238139
928617037,-6.528904,31.826403,39.616047,-0.986177,-0.313489,0.294809
928637014,1.911172,36.430855,45.402866,-0.950908,-0.229968,0.310638
928656994,6.502795,45.264767,53.396011,-0.904630,-0.239419,0.315941
928676974,8.759326,54.977039,63.846737,-0.875463,-0.230368,0.283120
928696954,5.105567,64.358810,74.349930,-0.892374,-0.142114,0.249309
928716934,1.221605,71.170906,84.322388,-0.970578,-0.032821,0.119254
928736914,-13.983025,87.018867,97.764709,-1.151698,0.095507,0.471836
928756894,-15.329571,108.205215,103.934013,-1.192101,0.591690,0.608185
928776874,-47.797970,126.652878,104.078827,-1.354918,0.713292,0.431723
928796854,-85.292427,125.665672,115.791000,-1.509697,0.788167,0.303230
928816834,-94.647072,118.763229,121.842255,-1.463052,0.696089,0.014022
928836814,-78.868401,94.240623,119.811638,-1.318687,0.352376,-0.349787
928856794,21.062233,46.455135,102.691536,-1.162991,0.412567,-0.536314
928876774,56.421585,14.305770,68.028046,-0.742918,0.499245,-0.476330
928896754,31.562416,11.826313,34.408665,-0.349090,0.479678,-0.395176
928916733,29.257477,-3.768462,-9.856911,-0.387127,0.634309,-0.349686
928936713,13.324634,-27.904667,-47.288803,-0.495700,0.846976,-0.425592
928956694,-29.344078,-57.773613,-70.512894,-0.558118,0.995043,-0.451334
928996653,-123.044456,-101.145081,-104.283676,-0.540639,0.631496,-0.520690
929016633,-107.606194,-120.876137,-135.670105,-0.500092,0.439592,-0.418287
929036613,-71.030785,-129.326263,-161.245300,-0.641985,0.281214,-0.322261
929056593,-41.330746,-114.865952,-173.915039,-0.815712,0.129965,-0.195662
929076573,5.578346,-109.465546,-164.568481,-0.940490,0.326952,-0.237467
929096553,31.932070,-105.338913,-145.064896,-0.992706,0.648047,-0.303493
929116533,23.949570,-108.199982,-114.491241,-0.925294,0.740294,-0.274423
929136513,18.150185,-106.061371,-85.317467,-0.854833,0.474781,-0.172872
929156493,28.027088,-80.768356,-63.219521,-0.751881,0.325105,-0.124178
929176473,34.923321,-37.654068,-40.446800,-0.673221,0.381440,-0.106729
929196453,31.033966,-8.374849,-15.163865,-0.749174,0.466392,-0.115181
929216433,28.512182,3.778512,3.038933,-0.767466,0.361972,-0.011873
929236413,5.311312,-6.410580,12.139555,-0.975290,0.224432,0.027930
929256392,32.670101,4.934061,-2.147507,-1.256220,0.103975,0.239334
929276373,37.472488,-3.721524,-27.836704,-1.307349,-0.088153,0.251284
929296353,51.264435,15.013569,-26.246042,-0.946671,0.603840,0.382213
929316332,20.583279,10.259725,4.020043,-0.858470,0.660260,0.155337
929336312,0.505344,7.081574,2.176681,-0.946855,0.028745,-0.049085
929356292,21.710434,9.370105,1.448866,-1.099064,-0.127033,-0.056930
929376272,30.033693,9.241059,-1.560137,-1.072608,0.082611,-0.005605
929396252,21.665073,5.504688,-8.366162,-0.995218,0.199331,0.058861
929416232,15.717082,3.765399,-3.545766,-0.992784,0.182941,0.030686
929436212,17.725452,5.271440,-6.155024,-1.023789,0.186810,-0.018006
929456192,12.003493,3.687702,-7.971390,-1.032239,0.205580,-0.038189
929476172,3.463274,1.258392,-7.096775,-1.006803,0.179059,-0.026507
929496152,0.453788,-0.279480,-6.673657,-0.996639,0.163892,0.013380
929516132,-1.327340,-1.384578,-5.588895,-1.011917,0.206419,0.040485
929536111,-5.726261,-2.112829,-4.974741,-0.993323,0.206568,0.054127
929556091,-7.016572,-2.149796,-4.232319,-0.970668,0.161923,0.056951
929576071,-7.760357,-1.723998,-3.017108,-0.982539,0.120807,0.044574
929596051,-8.058953,-0.383694,-1.443318,-1.012255,0.123316,0.048111
929616032,-6.941313,0.510311,-1.055983,-0.995150,0.102020,0.116031
929636011,-5.934987,2.377126,-0.912573,-0.931219,0.079336,0.245898
929655991,0.169917,2.542159,1.473521,-0.985064,-0.074702,0.263155
929675971,8.430209,2.415451,5.376279,-1.056373,-0.290619,0.224660
929695951,16.597605,4.897750,9.600925,-1.017921,-0.230783,0.215794
929715931,10.518625,6.287172,13.422591,-0.985295,0.016828,0.196014
929735911,-3.137570,5.618658,16.118145,-0.975139,0.105709,0.154644
929755891,-6.053383,5.978497,16.338602,-0.973416,0.129322,0.118977
929775871,-0.828415,5.688384,14.247471,-0.959839,0.211752,0.077013
929795851,0.912660,4.973492,11.975965,-0.964470,0.319956,0.031314
929815831,-2.434144,3.651264,10.192275,-0.974280,0.361920,-0.008114
929835811,-5.766835,1.933819,8.234625,-0.983789,0.329692,-0.020416
929855791,-6.227158,0.562960,6.395782,-0.985431,0.288694,0.000051
929875771,-4.570460,0.038059,4.830736,-0.972730,0.233666,0.046532
929895750,-0.807590,-0.239867,3.141441,-0.969068,0.167308,0.110433
929915731,2.522452,0.194522,1.804417,-0.971883,0.151912,0.121818
929935711,3.824650,0.348914,1.475909,-0.971109,0.132682,0.126881
929955691,3.908178,0.646485,2.189297,-0.984016,0.123718,0.124654
929975671,2.079139,0.908485,3.309937,-0.993835,0.133859,0.127922
929995651,-1.071717,0.335844,2.825068,-0.991019,0.162931,0.116855
930015631,-5.016204,0.971721,2.605335,-0.967701,0.197425,0.102714
930035610,-8.076500,1.261648,2.872550,-0.960894,0.204657,0.098099
930055591,-8.601145,1.234064,3.085448,-0.979112,0.183276,0.088343
930075570,-6.414495,1.583657,3.358694,-0.991603,0.160942,0.095880
930095551,-1.244801,0.622809,2.403971,-0.984082,0.141936,0.098621
930115530,3.624282,-0.581006,1.862143,-0.984169,0.137568,0.078020
930155490,11.110979,-1.916745,1.107231,-0.993577,0.155752,0.065916
930175470,9.550573,-1.951076,0.883544,-0.986018,0.203133,0.073707
930195450,4.878737,-1.904125,1.107992,-0.993899,0.228745,0.079478
930215430,0.540669,-1.739637,1.848896,-0.976689,0.208939,0.089000
930235410,0.054299,-1.873922,2.052081,-0.976561,0.173355,0.104284
930255390,2.273493,-3.234554,2.223558,-0.985406,0.131586,0.124892
930275370,5.047534,-3.461355,2.335328,-0.987156,0.118243,0.130738
930295350,8.108891,-3.684509,2.886159,-0.981683,0.110868,0.114629
930315330,10.260321,-3.185784,3.459876,-0.973957,0.103834,0.125506
930335309,12.555769,-2.883544,3.898952,-0.982956,0.082234,0.128610
930355289,13.850711,-2.426685,5.781856,-1.001575,0.052892,0.132046
930375270,14.821776,0.296387,8.465866,-1.006592,0.033284,0.128357
930395249,12.689687,3.685856,13.171885,-0.997529,0.043542,0.182957
930415229,4.538460,4.647954,18.817610,-0.988648,0.081805,0.241188
930435208,-6.847143,10.498732,22.814592,-0.981036,0.225722,0.181459
930455188,-27.895370,29.709179,21.861012,-0.979715,0.412676,0.093762
930475168,-54.843136,40.998779,19.268246,-0.965183,0.498289,0.076586
930495147,-69.618919,40.293880,20.122833,-0.921565,0.554338,0.013455
930515127,-84.978088,43.275166,19.198793,-0.895785,0.555646,0.032676
930535107,-110.214195,52.494534,18.461660,-0.874493,0.769837,0.079051
930555087,-164.550797,68.702980,11.677131,-0.809572,1.085752,0.040805
930575067,-245.309998,85.031265,2.381665,-0.750611,1.138946,-0.089608
930595047,-341.736542,95.845642,7.490619,-0.845070,0.875657,-0.251776
930615027,-394.969299,99.181442,22.297279,-0.923703,0.494349,-0.352252
930635007,-381.976807,99.123718,33.017155,-0.955149,0.101495,-0.353874
930654987,-340.408722,107.675362,29.210251,-0.900452,0.006689,-0.315094
930674967,-295.447723,113.536148,13.077003,-0.814863,0.116288,-0.347273
930694947,-267.965027,110.144241,-1.396301,-0.782681,0.264071,-0.370178
930714927,-255.845535,97.726341,-2.887480,-0.853367,0.357866,-0.398153
930734907,-259.852509,78.265938,-3.063706,-0.901616,0.343326,-0.416284
930754887,-250.950485,54.447563,-2.409642,-0.884950,0.173372,-0.409996
930774867,-217.672165,27.269876,-2.570686,-0.918883,-0.004766,-0.417151
930794847,-141.296234,-13.121708,-12.123247,-0.974932,-0.098972,-0.226013
930814826,-24.394800,-56.251263,-31.986769,-0.988723,-0.424391,-0.127946
930834807,44.127060,-10.703463,-30.212912,-1.581349,-1.119593,0.210168
930874767,173.770905,-15.740210,-49.784966,-0.935473,0.779869,-0.076185
930894746,79.891388,-23.014967,-40.278278,-0.141919,1.297052,0.167700
930914726,-36.540051,-9.845261,-6.639617,-0.764602,0.282658,0.112094
930934706,-39.358013,-7.637300,-6.950962,-1.154822,0.001329,-0.032257
930954686,-10.195142,-1.914335,-14.945326,-1.175523,0.119503,-0.101969
930974666,-12.809360,-2.495306,-14.536514,-1.027077,0.287496,-0.134145
930994646,-28.903419,-5.004497,-10.162391,-0.982084,0.261532,-0.160400
931014626,-43.974636,-7.036763,-5.054464,-1.018115,0.080176,-0.139677
931034606,-42.192322,-6.532005,-1.879300,-1.045613,0.013942,-0.126910
931054586,-36.875519,-9.302452,-2.243891,-1.012623,0.129431,-0.129272
931074566,-38.975613,-8.358078,-2.064152,-0.933808,0.183718,-0.032443
931094546,-43.938206,-6.427455,-2.281715,-0.974219,0.218856,0.007249
931114526,-49.708614,-6.110416,-3.313682,-1.001353,0.181083,0.026010
931134506,-58.668362,-4.874719,-1.066430,-0.964507,0.132986,0.054722
931154486,-59.091270,-1.184575,1.413887,-0.968773,0.090720,0.086893
931174466,-61.069206,-0.266060,5.127208,-1.018843,0.084863,0.087884
931194445,-65.722641,-0.912303,9.067814,-1.025430,0.097697,0.051568
931214425,-71.012665,-0.862165,10.751598,-1.006567,0.098420,0.006634
931234405,-75.418022,-1.349144,12.934809,-1.015447,0.100428,-0.012860
931254385,-78.194618,-2.670431,15.160100,-1.025069,0.129250,-0.010469
931274365,-82.975525,-3.850055,15.688848,-1.004129,0.189935,0.015066
931294345,-88.303642,-3.202539,14.648067,-0.973667,0.252596,0.056454
931314325,-95.213684,-3.957396,14.700278,-0.968877,0.290672,0.071887
931354285,-111.754890,-3.267226,17.806086,-0.972644,0.240185,0.036159
931374265,-113.166512,-3.452678,20.731976,-0.985556,0.238670,0.027641
931394245,-120.848480,-4.199105,24.987125,-0.990079,0.260606,-0.002155
931414225,-134.238815,-3.653154,28.460428,-0.973679,0.271989,-0.038238
931434205,-148.262543,-2.041337,30.743711,-0.974181,0.222190,-0.068591
931454185,-158.701523,0.230357,33.392704,-1.017516,0.183073,-0.054555
931474165,-172.180328,9.443044,38.612614,-1.021250,0.286123,0.002933
931494145,-203.337906,24.262217,44.971363,-0.992209,0.447863,0.033816
931514125,-253.097031,39.799458,46.812691,-0.918415,0.553459,0.058612
931534105,-294.084320,53.678871,45.204247,-0.851693,0.516393,-0.014791
931554085,-317.904022,72.921982,45.052383,-0.874157,0.445060,-0.176159
931574065,-328.365479,96.853271,48.537109,-0.912258,0.440436,-0.284259
931594045,-330.252258,103.621651,53.189854,-0.914459,0.459873,-0.356624
931614025,-320.422058,100.033974,57.608788,-0.901366,0.387517,-0.354401
931634005,-299.538300,98.008957,60.357983,-0.904597,0.256984,-0.277980
931653985,-271.747955,98.000839,62.943626,-0.957778,0.165481,-0.147225
931673965,-229.989243,93.272102,61.842094,-0.955191,0.107523,-0.151923
931693945,-181.454910,84.576797,57.345272,-0.956353,0.011993,-0.199567
931713925,-132.724304,71.015442,48.276970,-0.997652,-0.047198,-0.202253
931733905,-89.110069,54.515003,43.038078,-1.009295,-0.057672,-0.188575
931753884,-49.596588,34.594574,38.698372,-1.024910,0.006515,-0.172078
931773864,-17.836668,15.957735,32.313911,-1.004301,0.056849,-0.160042
931793844,6.691701,-0.571262,22.851093,-0.997116,0.033531,-0.121326
931813824,32.577614,-15.559088,12.758536,-1.015468,0.051828,-0.126218
931833804,54.986881,-24.132303,5.013688,-1.042881,0.065896,-0.138325
931853784,71.745277,-26.234581,0.563237,-1.010783,0.114949,-0.117225
931873764,64.289696,-24.634396,-4.252929,-0.942952,0.249485,0.132841
931893743,45.495075,-39.579498,-17.969040,-0.923560,0.424817,-0.123715
931913724,15.827020,-37.580460,-44.913464,-0.982758,0.513498,0.211199
931933703,-7.714417,-7.856582,-71.337799,-1.271435,-0.126955,1.028452
931953683,-49.581013,-20.824383,-52.746292,-1.943135,0.111217,0.647684
931973663,-18.584196,-14.054164,-33.557312,-0.840535,0.426623,0.243938
931993643,-54.314442,-5.766605,-22.420963,-0.314355,0.123638,0.112673
932013623,-21.221807,-10.090723,-16.136847,-0.814860,-0.287219,-0.019379
932033603,22.742054,-2.828542,-22.507431,-1.383622,-0.359102,-0.046881
932053583,58.008789,-2.715543,-33.430866,-1.186016,-0.064180,-0.126948
932073563,45.500111,3.093609,-30.182882,-0.911216,0.393790,-0.072683
932093543,-10.340163,-4.263072,-16.039091,-0.817583,0.500460,-0.003092
932113523,-48.233227,-8.050417,-3.514748,-1.007068,0.208267,-0.018976
932133503,-36.314873,-11.445692,-3.023507,-1.110462,-0.003239,-0.023713
932153483,-6.730844,-10.153500,-10.950809,-1.040914,0.089938,0.020079
932173463,1.178324,-9.709076,-15.434904,-0.953597,0.295774,0.054888
932193443,-10.228481,-9.066560,-14.278005,-0.935415,0.326574,0.115742
932213422,-20.908678,-11.443442,-12.113591,-0.948742,0.252276,0.096926
932233402,-24.015421,-14.030077,-10.261196,-0.976811,0.144220,0.090029
932253382,-16.107754,-14.404224,-10.771059,-1.001581,0.070124,0.088217
932273363,-1.080871,-14.122903,-13.200684,-1.021236,0.017307,0.075468
932293342,12.578092,-12.176965,-14.716907,-1.003829,0.048174,0.126690
932313322,18.832304,-12.062361,-11.241582,-0.975939,-0.043894,0.149954
932333303,18.193630,-10.832884,-2.975375,-1.004865,-0.221517,0.247445
932353282,24.223871,-8.383695,1.369427,-0.974162,-0.217636,0.317270
932373263,24.910166,-6.839286,1.527747,-0.943897,-0.079861,0.312186
932393242,21.951296,-5.835863,3.529810,-0.963998,0.049782,0.241259
932413222,16.516918,-3.590913,5.652316,-0.982328,0.110219,0.175473
932433202,16.385212,-1.538779,6.531690,-0.982935,0.167150,0.139139
932453182,17.060411,-0.692219,6.252340,-0.976685,0.209672,0.112065
932473162,15.560369,-0.435719,6.009169,-0.979585,0.232054,0.087636
932493142,12.923576,-0.620608,6.515706,-0.987549,0.249670,0.055109
932513122,13.068759,-1.633614,5.643681,-0.975584,0.225944,0.039639
932533102,14.663133,-1.937700,5.419061,-0.977999,0.194408,0.051715
932553082,14.627164,-2.442866,4.831814,-0.987256,0.215027,0.078383
932573062,11.259682,-3.271940,3.338148,-0.978422,0.271684,0.086786
932593042,4.634154,-2.309803,1.731568,-0.960571,0.314191,0.111000
932613022,-1.413747,-2.868089,0.316410,-0.962012,0.298944,0.120759
932633001,-4.970064,-2.687410,0.604035,-0.984919,0.212859,0.116364
932652981,-5.797544,-2.247050,1.851140,-0.988544,0.141273,0.137919
932672962,-6.650513,-2.100683,2.101578,-0.970325,0.126927,0.149881
932692941,-6.866026,-1.573573,2.035834,-0.970329,0.134184,0.163206
932712921,-8.291822,-1.368532,2.294902,-0.974006,0.134856,0.154010
932752881,-6.118424,-0.311296,2.166294,-0.979294,0.152929,0.156553
932772861,-3.724159,-1.051460,0.969914,-0.974364,0.169098,0.143633
932792841,-1.744377,-0.647914,0.483121,-0.974237,0.185060,0.146306
932812821,-0.005345,-1.637234,0.101446,-0.971089,0.199457,0.137469
932832801,1.076079,-1.896320,-0.230100,-0.983229,0.187367,0.132714
932852781,2.753077,-2.075833,-1.271110,-0.974423,0.188425,0.121320
932872761,4.745650,-0.617162,-1.811401,-0.965051,0.164230,0.134714
932892741,4.905289,1.069613,-1.598038,-0.976006,0.137960,0.167883
932912721,3.970886,0.907800,-1.160085,-0.981769,0.133081,0.173313
932932701,3.561141,0.865066,-0.918423,-0.972035,0.135125,0.162194
932952681,2.563879,0.826928,-0.622902,-0.977883,0.138159,0.140626
932972661,2.071837,1.048888,-0.177714,-0.989644,0.149212,0.134617
932992641,0.947878,1.800594,-0.166762,-0.968644,0.177097,0.120938
933012621,-0.140290,2.417091,0.307547,-0.973840,0.176182,0.139618
933032600,-3.678430,0.787360,0.560863,-0.989275,0.181860,0.117166
933052580,-7.843638,0.667247,-0.422905,-0.988528,0.206120,0.078858
933072560,-9.638663,0.340541,-1.205128,-0.982059,0.232120,0.091798
933092540,-12.110327,-0.099791,-1.010014,-0.976925,0.233182,0.108535
933112520,-13.851504,0.693592,-0.860260,-0.976404,0.213282,0.126676
933132500,-13.788067,0.020231,-0.756405,-0.977571,0.165838,0.133908
933152480,-11.622495,-0.203495,-1.117420,-0.978905,0.120429,0.147217
933172460,-8.226761,-0.750658,-1.484579,-0.989269,0.106951,0.145837
933192440,-4.771769,-0.235579,-1.844672,-0.978974,0.120316,0.141587
933212420,-3.166246,0.623298,-1.548471,-0.973723,0.131026,0.155114
933232400,-2.330131,0.798163,-1.183085,-0.973291,0.130575,0.158297
933252380,-1.478824,1.270587,-0.775381,-0.973507,0.126517,0.167935
933272360,0.502676,0.893727,-0.525228,-0.979942,0.126528,0.162448
933292340,1.707392,1.160137,-0.667506,-0.985831,0.134538,0.131509
933312320,3.015349,1.864954,-0.369515,-0.979375,0.152463,0.131489
933332300,3.417927,2.021531,-0.548328,-0.975515,0.163696,0.132474
933352280,3.578722,1.960740,-0.520852,-0.977054,0.146321,0.134247
933372260,5.281506,2.143529,-0.526019,-0.980372,0.134430,0.130997
933392240,7.100695,2.347663,-0.356819,-0.979244,0.141719,0.135339
933412220,6.938885,1.677481,-0.601131,-0.985263,0.153948,0.132266
933432200,6.778959,1.112011,-0.653033,-0.984226,0.153337,0.121468
933452180,7.206866,0.900017,-0.669571,-0.990037,0.156605,0.112886
933472160,7.538128,0.890641,-0.406932,-0.983009,0.158396,0.116009
933492139,7.935759,1.013759,-0.341804,-0.981158,0.148282,0.104066
933512119,8.371016,1.923104,-0.196983,-0.982756,0.136638,0.124710
933532099,7.877961,1.063301,-0.027207,-0.979526,0.148992,0.129138
933552079,6.213120,0.575900,-0.095728,-0.981232,0.164452,0.111913
933572059,4.544574,-0.098824,0.169065,-0.990788,0.181300,0.106806
933592039,3.465963,-0.108992,0.007919,-0.979277,0.191716,0.122824
933612019,2.877801,0.224920,-0.651222,-0.975262,0.180929,0.112349
933631999,1.074745,1.683049,-1.170557,-0.982712,0.147850,0.124491
933651979,0.443866,1.257026,-0.251856,-0.974336,0.159495,0.114150
933671959,-0.633048,0.878268,0.391045,-0.986722,0.150915,0.119281
933691938,-0.505232,0.545461,0.147727,-0.984307,0.153700,0.120739
933711919,-1.334638,0.096401,0.358608,-0.978390,0.159810,0.127293
933731898,-2.133148,-0.215645,0.624525,-0.977957,0.158150,0.124577
933751878,-1.996745,-0.076652,0.548339,-0.981370,0.155475,0.123021
933771858,-1.555572,-0.469419,0.315166,-0.986193,0.160316,0.124611
933791838,-1.358116,-0.955440,0.129756,-0.982854,0.164934,0.110540
933831798,-1.627065,-1.038643,-0.035808,-0.980015,0.165975,0.111189
933851778,-2.832093,-0.915796,0.142701,-0.982120,0.166772,0.117622
933871759,-4.638644,-0.309372,0.573158,-0.979911,0.167347,0.134979
933891738,-6.742829,-0.215347,0.939084,-0.973162,0.157609,0.148855
933911718,-7.772408,-0.327949,1.058321,-0.982556,0.139869,0.135326
933931698,-6.437177,-0.084621,0.975026,-0.986576,0.140900,0.123038
933951678,-5.283167,-0.187465,1.026591,-0.980643,0.151182,0.124402
933971658,-7.174286,-0.434873,1.262461,-0.984804,0.164361,0.117069
933991638,-8.365532,-0.256961,1.311769,-0.979483,0.180861,0.120225
934011618,-9.657570,-1.053925,1.058035,-0.979230,0.180132,0.121409
934031598,-9.952646,-0.782939,0.653633,-0.980017,0.175095,0.111977
934051578,-8.219426,-0.782920,0.607203,-0.979735,0.159075,0.119387
934071558,-7.098333,-0.746053,0.462710,-0.985297,0.145614,0.122758
934091538,-5.800396,-1.190175,0.346977,-0.979799,0.143882,0.126611
934111517,-5.954088,-0.655970,0.349224,-0.976017,0.158820,0.141659
934131497,-6.973978,-0.465738,0.709476,-0.975745,0.151835,0.151310
934151477,-6.256162,-0.660947,0.666340,-0.975873,0.140433,0.149077
934171457,-3.313016,-0.620623,0.214627,-0.985360,0.130785,0.152048
934191437,-1.273322,-0.788178,0.230319,-0.978250,0.138168,0.141260
934211417,-0.242897,-0.440095,0.229053,-0.978401,0.148282,0.139137
934231397,0.187086,-0.463700,0.436690,-0.982929,0.153839,0.138910
934251377,-0.575491,-0.460481,0.546358,-0.975900,0.159351,0.138207
934271357,-1.111174,-0.621666,0.421457,-0.979612,0.159686,0.135551
934291337,-0.485960,-0.381544,0.363024,-0.980052,0.151120,0.134305
934311317,0.680767,-0.382410,0.194451,-0.982203,0.152712,0.134377
934331297,0.748066,-0.563583,0.030531,-0.979600,0.171957,0.126792
934351277,0.237952,-0.491162,0.191237,-0.979009,0.174224,0.126788
934371257,-1.164008,-0.149767,0.558880,-0.979758,0.160398,0.130643
934391237,-1.509240,-0.431654,0.368542,-0.982349,0.150538,0.136926
934411217,-1.557654,-0.604421,0.099406,-0.974567,0.157868,0.138584
934431197,-2.180440,-0.420136,0.454182,-0.978740,0.154682,0.142020
934451176,-1.607250,-0.448700,0.484168,-0.980442,0.146130,0.138315
934471158,-0.668350,-0.268898,0.466415,-0.979875,0.148328,0.143487
934491145,-0.737215,-0.086022,0.485292,-0.977096,0.156315,0.147927
934511131,-0.994757,-0.058901,0.687727,-0.977739,0.155218,0.144295
934531117,-0.798873,-0.390697,0.382409,-0.980538,0.154789,0.137468
934551078,-0.281604,-0.271919,0.209124,-0.977406,0.164736,0.132732
934571058,-0.060297,0.118102,0.257632,-0.978822,0.166957,0.133988
934591038,-0.066596,0.055609,0.371350,-0.979666,0.162810,0.141352
934611018,-0.441180,-0.151446,0.304684,-0.980754,0.156969,0.134554
934630998,-0.388497,0.017389,0.260615,-0.976098,0.153139,0.134049
934650977,-0.570011,0.197715,0.456619,-0.981040,0.153543,0.142555
934670957,-0.784376,0.029630,0.380711,-0.979418,0.152876,0.143021
934690938,-0.647969,0.016103,0.279391,-0.976377,0.159102,0.141929
934710917,-0.303963,0.093425,0.321669,-0.979591,0.161245,0.137907
934730898,0.331401,-0.042818,0.433239,-0.980526,0.154592,0.133836
934750877,0.627126,-0.069777,0.230288,-0.980425,0.160347,0.137178
934770857,0.245256,-0.139981,0.219173,-0.978210,0.161666,0.136006
934790837,-0.075551,0.156145,0.266030,-0.979587,0.156868,0.137649
934810817,-0.037223,0.118021,0.272590,-0.979622,0.159417,0.136641
934830797,-0.176499,0.073659,0.098197,-0.975448,0.164368,0.141009
934850777,-0.181704,0.246377,0.352787,-0.978706,0.161158,0.143089
934870757,0.040168,0.094352,0.362830,-0.980399,0.150176,0.146929
934910717,1.260567,0.261245,0.241796,-0.979769,0.156128,0.134199
934930697,1.107420,0.116160,0.180666,-0.978226,0.160102,0.132561
934950677,0.505762,0.531252,0.408707,-0.979115,0.162144,0.137089
934970657,-0.204027,0.489669,0.448278,-0.979138,0.166260,0.140436
934990637,-0.288361,0.642191,0.444012,-0.976777,0.157380,0.142386
935010617,-0.432541,0.488065,0.504809,-0.983962,0.156591,0.138168
935030597,-0.166075,0.329939,0.399613,-0.978039,0.156650,0.136296
935050576,0.232228,0.345567,0.508981,-0.978878,0.159758,0.134465
935070557,-0.141201,0.785450,0.657923,-0.977021,0.157171,0.134848
935090537,-0.629078,0.866326,0.757360,-0.977008,0.159110,0.140744
935110517,-0.934949,0.468934,0.656438,-0.978250,0.164127,0.135726
935130497,-1.482242,0.532478,0.909155,-0.981132,0.156525,0.135643
935150481,-1.016362,0.297997,0.868865,-0.981186,0.149233,0.135485
935170456,0.042277,0.412344,0.611805,-0.979582,0.156584,0.135198
935190436,0.125710,0.207421,0.523682,-0.980451,0.164187,0.139981
935210416,-0.538413,0.158572,0.547255,-0.974634,0.165663,0.127297
935230396,-0.786768,0.542453,0.953317,-0.981007,0.166538,0.132432
935250376,-1.263594,0.239066,0.596452,-0.977617,0.163746,0.134823
935270356,-0.421551,0.301433,0.784480,-0.978208,0.171804,0.140514
935290336,-0.841097,0.024620,0.786133,-0.980071,0.160628,0.140721
935310316,0.381247,-0.039375,0.806793,-0.979251,0.154658,0.133935
935330296,0.821391,-0.057358,0.540922,-0.979205,0.169776,0.130525
935350276,0.423431,0.018151,0.478698,-0.978407,0.168294,0.128446
935370256,0.391704,-0.163715,0.339020,-0.977969,0.167372,0.128179
935390235,0.345690,-0.095065,0.333010,-0.976298,0.170187,0.133356
935410215,-0.106523,-0.034166,0.194946,-0.976309,0.170755,0.138349
935430195,0.168208,-0.124310,0.159356,-0.978703,0.160969,0.141546
935450175,0.474125,-0.154014,0.192953,-0.978567,0.167061,0.138348
935470155,0.503826,-0.191096,0.108009,-0.977658,0.166301,0.135177
935490135,-0.168083,-0.049168,0.149744,-0.980245,0.168441,0.133338
935510115,-0.991528,0.067935,0.300082,-0.980659,0.166638,0.136430
935530095,-1.496713,0.234842,0.225375,-0.977522,0.159461,0.135019
935550075,-1.382393,-0.077083,0.150543,-0.977920,0.163038,0.138456
935570058,-0.702496,-0.082095,0.164152,-0.978750,0.161857,0.135639
935590045,-0.497321,0.080021,0.095007,-0.980422,0.169276,0.135968
935610015,-0.605347,0.057901,-0.010758,-0.976482,0.170378,0.134535
935629995,-1.092587,0.351608,0.183413,-0.978405,0.169221,0.132257
935649975,-1.641132,0.126732,0.271574,-0.977699,0.164483,0.136273
935669955,-1.536880,0.290217,0.051092,-0.977656,0.161833,0.134919
935689935,-1.269018,0.183955,0.084088,-0.980006,0.163166,0.137625
935709915,-0.568046,0.142905,-0.078750,-0.976879,0.160464,0.138289
935749875,1.169302,-0.524301,-0.562609,-0.980210,0.165613,0.133076
935769855,1.877156,-0.556872,-0.794144,-0.976800,0.167176,0.130276
935789834,2.478876,-0.461103,-0.930730,-0.978310,0.169958,0.134707
935809815,1.937659,-0.350076,-0.814856,-0.976686,0.165844,0.139544
935829795,1.824819,-0.436302,-0.669493,-0.977260,0.155001,0.137941
935849774,1.047941,-0.274063,-0.442765,-0.979635,0.154778,0.139108
935869754,0.462571,0.124740,-0.123547,-0.981335,0.156271,0.139275
935889734,-0.816594,0.244841,0.262109,-0.978069,0.156122,0.140839
935909714,-1.395257,0.309150,0.438899,-0.979837,0.154151,0.140744
935929694,-0.914478,0.250533,0.393338,-0.978293,0.162311,0.137184
935949674,-0.916012,0.282705,0.256374,-0.977229,0.165110,0.135638
935969654,-0.327555,0.307592,0.294570,-0.979135,0.160677,0.135005
935989634,0.457250,0.068811,0.081890,-0.980162,0.163423,0.132811
936009614,0.968802,-0.127187,0.033905,-0.976477,0.165443,0.131645
936029594,0.739932,-0.212288,0.043405,-0.978795,0.168882,0.136615
