Timestamp (us),Gyroscope X (deg/s),Gyroscope Y (deg/s),Gyroscope Z (deg/s),Accelerometer X (g),Accelerometer Y (g),Accelerometer Z (g)
917418306,0.108773,0.137853,-0.424863,-0.970804,0.086488,-0.215631
917438347,-0.056986,1.268087,-0.628229,-0.971979,0.086216,-0.211369
917458389,0.671299,0.420172,-0.242178,-0.976372,0.079109,-0.214084
917478431,-1.853234,0.221833,-0.476926,-0.966924,0.075460,-0.218297
917518515,0.268889,0.756260,-0.378294,-0.978497,0.089776,-0.208369
917538557,1.080711,-1.488481,-0.367232,-0.973006,0.084430,-0.217194
917558600,0.046148,-1.244350,-0.221795,-0.967081,0.085753,-0.216272
917578642,-0.759307,0.862525,0.154750,-0.974682,0.078839,-0.217325
917598684,0.913091,1.411817,0.603458,-0.975710,0.075629,-0.215019
917618726,2.470611,-0.267943,0.660694,-0.973739,0.070329,-0.220273
917638766,3.375545,-0.977801,0.491739,-0.973555,0.068750,-0.222432
917658808,1.878098,-0.656953,0.295335,-0.972359,0.071578,-0.219535
917678850,-0.303611,-0.595547,-0.060837,-0.968145,0.079630,-0.220756
917698892,2.047524,0.923829,0.039307,-0.969877,0.097797,-0.216879
917718934,2.055279,0.969683,0.001355,-0.975587,0.090668,-0.217161
917738976,0.351611,-0.182919,-0.334266,-0.972186,0.091924,-0.212554
917759018,-0.448358,-0.595645,0.022890,-0.972075,0.090887,-0.214996
917779062,0.478504,-0.908945,0.280443,-0.973457,0.076331,-0.212979
917799103,1.903324,-0.075940,-0.365323,-0.972784,0.082689,-0.211696
917819146,0.861107,-0.221095,-0.319388,-0.975826,0.085519,-0.215720
917839187,-0.129320,-0.084397,0.312548,-0.972824,0.078854,-0.219474
917859228,0.540018,-0.435459,0.189940,-0.972227,0.075151,-0.217127
917879269,1.521317,0.083667,0.281541,-0.967462,0.085406,-0.215819
917899311,1.117769,0.961237,0.701465,-0.976612,0.075256,-0.210932
917919353,1.185279,-0.848068,0.485500,-0.979169,0.064852,-0.218843
917939395,0.836801,-0.778855,0.029516,-0.974565,0.075631,-0.212991
917959437,0.935105,-0.878296,0.196603,-0.974976,0.089359,-0.212481
917979479,1.003203,0.655740,0.777066,-0.969535,0.085628,-0.216503
917999522,0.873106,0.487507,1.004996,-0.974247,0.075846,-0.210163
918019564,2.149940,-1.428599,0.742590,-0.979871,0.079546,-0.221088
918039606,1.807765,-1.596501,0.666444,-0.970246,0.084595,-0.213768
918059648,0.113057,0.106042,0.715785,-0.968869,0.081404,-0.218611
918079688,0.857993,0.166972,0.875193,-0.974054,0.075924,-0.210707
918099730,0.386492,-0.344417,0.707290,-0.976333,0.079817,-0.215279
918119772,1.596172,-0.802184,0.432127,-0.970193,0.088067,-0.212180
918139814,0.539016,-0.733520,0.448005,-0.973372,0.089827,-0.215098
918159856,-1.217586,-0.252612,0.495353,-0.973080,0.086454,-0.215496
918179898,-0.844942,0.174820,0.632750,-0.974963,0.079019,-0.211684
918199939,0.364038,-0.458768,0.547414,-0.976862,0.083352,-0.216619
918219983,1.420711,-0.886355,0.591778,-0.970046,0.079281,-0.216689
918240025,3.118151,0.106492,0.402415,-0.973092,0.084020,-0.208078
918260067,1.734544,-0.290222,0.075483,-0.974295,0.085456,-0.205027
918280109,-0.654224,-0.710341,0.167297,-0.977006,0.092043,-0.212382
918300171,0.547150,-0.527233,0.326668,-0.971745,0.094423,-0.208574
918320191,-0.143728,0.595220,0.237635,-0.969874,0.088670,-0.213914
918340233,-0.614987,1.183031,0.314904,-0.974636,0.080911,-0.212162
918380317,-0.942095,-1.709793,-0.526234,-0.974491,0.080289,-0.210965
918400359,-1.306462,-0.511205,-0.409986,-0.972355,0.084365,-0.208159
918420401,-0.684616,-0.572942,0.197960,-0.971956,0.087862,-0.210482
918440444,1.017272,-1.390258,0.560736,-0.970412,0.082384,-0.222485
918460486,1.255554,-0.564953,-0.061605,-0.971942,0.082741,-0.212955
918500569,-2.783901,-1.466096,-0.015349,-0.974151,0.082355,-0.211992
918520611,-1.202815,-3.321118,-0.270209,-0.971172,0.086223,-0.215726
918540652,-1.804581,-4.733542,-0.371094,-0.967588,0.102670,-0.221372
918560694,-3.365698,-3.177292,0.780613,-0.976447,0.106771,-0.203941
918580736,-1.407471,-4.056527,1.903620,-0.979148,0.097431,-0.207589
918600778,2.499756,-3.988481,2.624125,-0.969217,0.088989,-0.209623
918620820,4.643490,-3.195007,3.217479,-0.971310,0.089875,-0.208404
918640862,6.862549,-3.661204,3.687032,-0.979212,0.068516,-0.216714
918660905,5.862096,-1.988340,2.983094,-0.974098,0.059599,-0.209546
918680947,6.238687,0.043476,2.233400,-0.976664,0.074930,-0.208468
918700989,7.381008,-0.039872,1.692729,-0.982662,0.080925,-0.205859
918721031,6.861956,-2.452539,1.620561,-0.977472,0.083863,-0.207437
918741073,5.887181,-4.460454,1.458047,-0.968646,0.091842,-0.212297
918761113,5.700170,-3.451741,0.676534,-0.968410,0.096104,-0.199784
918781155,7.606360,-1.312675,-0.347554,-0.969896,0.115065,-0.203386
918801197,4.907199,0.908656,0.037780,-0.978389,0.117192,-0.183639
918821239,2.112275,-1.031561,0.735663,-0.974462,0.089168,-0.181123
918841281,2.286896,-2.001023,0.551452,-0.967696,0.079272,-0.200968
918861323,7.390002,1.612254,-0.928154,-0.974875,0.085627,-0.188002
918881365,4.148383,3.171504,-2.520850,-0.992002,0.116599,-0.165962
918901408,0.796258,3.546134,-3.073611,-0.976543,0.133265,-0.174281
918921450,-3.775711,2.141168,-3.134375,-0.975292,0.133252,-0.173070
918941492,-3.380841,0.652570,-3.365190,-0.963630,0.114251,-0.198961
918961533,-4.601130,3.195831,-4.059965,-0.973406,0.086875,-0.187171
918981574,-8.143752,2.181168,-4.903905,-0.988575,0.086384,-0.183741
919001616,-9.188941,-0.682367,-4.641938,-0.993425,0.072017,-0.205671
919021658,-5.456782,0.118356,-3.653963,-0.982590,0.057653,-0.220079
919041700,-5.091281,0.675722,-3.638022,-0.978578,0.064523,-0.221742
919061742,-2.235534,0.842219,-2.224774,-0.970306,0.089050,-0.219669
919081784,-1.877600,0.412052,0.116568,-0.968445,0.100465,-0.212152
919101826,-2.562337,-3.170721,1.761206,-0.982764,0.095115,-0.216740
919121869,4.796677,-6.033945,1.995944,-0.968684,0.084692,-0.254376
919141911,8.548470,-4.582738,1.646563,-0.956573,0.094004,-0.243243
919161953,3.722154,-5.703669,0.202350,-0.958736,0.081992,-0.229983
919181994,4.692014,-6.366155,-1.365822,-0.988731,0.053068,-0.233348
919202035,10.213909,-3.851784,-3.341774,-0.984848,0.066506,-0.214430
919222077,8.483984,-2.865630,-4.479933,-0.984743,0.073360,-0.186378
919242119,3.221961,-4.720157,-5.385200,-0.990103,0.088648,-0.186723
919262161,5.361866,-4.925109,-6.398088,-0.998489,0.103809,-0.200798
919282203,11.960402,-4.365957,-7.799889,-0.986869,0.113292,-0.197423
919302245,10.291384,-2.692837,-8.754430,-0.942505,0.122999,-0.174239
919322286,5.344508,-0.836591,-9.699339,-0.939781,0.137206,-0.185517
919342330,3.623599,2.073542,-10.750664,-0.965612,0.154303,-0.157977
919362372,2.165891,3.799464,-11.119667,-0.981313,0.186022,-0.138378
919382414,2.399363,6.515820,-9.510699,-1.023935,0.233383,-0.118119
919402456,6.720361,11.863945,-5.640925,-1.070182,0.301388,-0.076748
919422496,22.305416,7.400459,5.742913,-1.000634,0.419613,0.007797
919442538,54.500175,-13.803574,28.200724,-1.016418,0.723314,0.086086
919462580,77.343056,-40.013206,61.309307,-0.862298,0.735829,0.097829
919482622,99.325920,-41.049370,94.254745,-0.924331,0.602712,0.200006
919502664,88.823830,-36.688019,126.762314,-1.187081,0.407524,0.308006
919522706,54.594769,-45.128956,136.203720,-1.415840,0.187430,0.240139
919542748,38.984863,-60.039764,114.460625,-1.344215,0.054675,-0.090015
919562791,71.135567,-59.042160,90.330933,-1.212023,-0.007261,-0.238953
919582833,80.487366,-40.159206,75.954041,-1.046589,-0.151762,-0.253722
919602875,39.925613,-23.365723,57.759552,-0.916437,-0.021277,-0.305154
919622917,2.451486,-18.510891,43.969566,-0.830091,0.179182,-0.281937
919642973,-42.374710,-13.151590,29.469444,-0.734012,0.274261,-0.121680
919662999,-84.930626,1.669088,13.835505,-0.716901,0.382944,0.043478
919683041,-112.482933,-0.230221,4.477859,-0.743303,0.403648,0.111955
919703083,-134.716827,8.584820,0.222712,-0.793691,0.364511,0.171379
919723125,-149.765121,7.639050,-1.124584,-0.838806,0.337739,0.172224
919743167,-140.171143,13.540739,-0.534281,-0.845608,0.291709,0.161309
919763209,-94.452347,8.845971,0.034690,-0.801264,0.296749,0.194405
919783252,-40.447296,5.818635,5.058417,-0.708926,0.354689,0.142758
919803294,-4.233485,15.747344,17.238554,-0.768316,0.421799,0.150795
919823336,8.887741,22.972481,29.357899,-0.846086,0.462754,0.190290
919843378,31.294283,16.601948,32.506721,-0.874756,0.448009,0.127780
919863420,61.026558,11.307875,22.254030,-0.758220,0.446259,-0.066689
919883460,81.221375,28.737095,10.933722,-0.703293,0.534603,-0.281039
919903502,74.346497,61.718430,-0.453053,-1.112722,0.540464,-0.240576
919923544,-33.383232,57.118652,-21.225708,-1.870468,0.809502,0.258810
919943586,-45.327770,5.053153,6.671906,-1.467873,1.282900,-0.538790
919963628,75.146790,-11.622031,37.592880,-0.796240,0.535759,-0.667317
919983669,28.056477,-28.057913,13.133714,-0.680952,-0.592358,0.150780
920003713,-40.950203,-8.106743,-30.387022,-0.736061,-1.043401,0.018890
920023755,-1.681741,31.984684,-55.634388,-0.905043,-0.611219,-0.374945
920043797,66.439850,43.296341,-57.088715,-1.076884,0.079708,-0.794410
920063839,97.134933,40.026146,-47.224163,-1.274489,0.390614,-0.181026
920083881,49.236095,9.340345,-48.801220,-1.090938,0.137327,-0.178805
920103921,28.424109,21.326965,-62.534897,-0.850362,0.027932,-0.438761
920123963,25.799318,34.176434,-68.922966,-0.878621,0.072647,-0.451604
920144005,9.840568,41.691429,-71.137901,-0.953239,0.145961,-0.348486
920164047,-5.544630,42.648239,-73.767059,-0.989711,0.070586,-0.266531
920184089,-6.331903,42.828129,-77.629532,-0.945838,-0.031781,-0.227421
920204131,3.797737,40.232990,-78.080223,-0.911097,0.001842,-0.223939
920224173,12.388018,37.847412,-74.780655,-0.930423,0.123544,-0.247621
920244216,17.246418,36.914635,-66.624931,-0.908143,0.202772,-0.269426
920264258,21.513792,36.750656,-56.368725,-0.892869,0.276382,-0.308237
920284300,27.603710,39.687458,-46.853592,-0.866441,0.387596,-0.271676
920304342,39.296585,30.799374,-32.167004,-0.873321,0.444770,-0.253927
920324383,38.999565,20.027176,-19.446856,-0.889374,0.423382,-0.259124
920344425,27.158039,20.476067,-11.515808,-1.005911,0.372194,-0.257832
920364467,33.979965,10.384632,-6.547444,-1.048318,0.358420,-0.313807
920384508,32.497513,4.217620,-8.610152,-0.917215,0.334474,-0.318837
920404550,8.189818,6.858729,-15.589315,-0.776200,0.330885,-0.237685
920424592,-28.117359,31.322065,-16.754049,-0.869895,0.303458,-0.131864
920444633,-24.058567,37.882385,-11.269936,-1.004630,0.244046,-0.095833
920464677,-9.616899,27.894747,-3.286343,-1.104915,0.213060,-0.052054
920484719,10.811384,10.740624,2.187890,-1.184656,0.369821,-0.063128
920504761,16.472294,-3.059313,5.135475,-1.128384,0.505421,-0.085551
920524803,43.601341,-16.291065,19.586220,-1.394737,0.645011,0.016683
920544843,53.851456,-50.753658,31.098045,-1.392978,0.577380,0.076621
920564885,59.106785,-80.664764,48.521275,-1.332002,0.566395,0.258831
920584927,89.612274,-107.639488,69.540726,-1.277542,0.434803,0.322573
920604969,104.068947,-113.853134,89.264603,-1.057835,0.233371,-0.044376
920625011,88.379036,-90.115273,109.418976,-0.965977,-0.021458,-0.381075
920645053,99.387527,-74.392647,128.793167,-1.159830,-0.110203,-0.437208
920665095,67.078293,-53.866871,132.608475,-1.556697,0.011471,-0.341771
920685138,-13.777061,-50.214447,120.824120,-1.560875,0.193449,-0.310120
920705180,-37.035847,-53.916313,112.176071,-1.229082,0.109651,-0.313359
920725222,-38.980492,-43.068264,106.696884,-1.074216,-0.076573,-0.311486
920745264,-37.930035,-29.818163,97.182022,-0.976584,-0.220206,-0.391727
920765304,-30.671965,-18.553543,81.287872,-0.875009,-0.209867,-0.448283
920785346,-17.602610,-3.525569,66.294273,-0.725554,-0.163378,-0.455655
920805388,-2.658225,18.948832,49.486893,-0.649960,-0.164081,-0.428294
920825430,8.482700,33.054489,33.047886,-0.612644,-0.167583,-0.369973
920845472,8.212665,43.250809,16.357435,-0.614854,-0.263722,-0.303938
920865514,-12.763883,44.227470,-4.261438,-0.606374,-0.359851,-0.151029
920885556,-53.890011,28.756989,-31.566292,-0.646173,-0.446484,-0.080725
920905599,-73.344780,12.740679,-54.868164,-0.784086,-0.381581,0.056659
920925641,-150.337677,-24.450857,-70.562622,-0.948123,0.198955,0.585864
920945683,-360.601959,-69.249329,-67.651833,-1.061150,1.345571,0.953254
920965725,-435.437531,2.029181,-18.368118,-0.965692,3.090554,-0.407379
920985766,1.357405,96.513451,99.059006,-1.480765,1.859437,0.303132
921005807,192.923233,27.110804,89.717720,-0.860968,-0.062756,-0.373986
921025849,252.845047,-2.042034,44.907166,-0.403356,-0.941842,-0.939549
921045891,56.769737,-40.213200,-20.286083,-1.639229,-1.611489,0.279741
921065933,-250.070221,-3.694257,-42.916443,-1.799302,0.198345,1.405282
921085975,-43.149559,-2.815512,-9.897679,-1.096259,1.379731,-1.258714
921106017,169.715073,50.718102,0.588898,-0.762747,-0.074978,-1.217620
921126060,-22.423958,63.072941,-40.408222,-1.105937,-0.882603,0.071276
921146102,-83.836502,16.111944,-65.754578,-1.089719,-0.230084,-0.279106
921166144,-10.888885,38.441074,-60.067589,-1.068761,0.167739,-0.572172
921186186,-9.364534,39.895519,-63.389225,-0.998872,0.008711,-0.402903
921206251,-35.953506,39.101990,-71.528793,-0.871635,-0.128940,-0.453374
921226268,-27.892672,40.048309,-70.885063,-0.882448,-0.094842,-0.474259
921246310,-24.967936,34.515179,-66.097214,-0.892634,0.116184,-0.309872
921266352,-19.428040,26.006714,-56.532326,-0.965498,0.202963,-0.195716
921286394,3.824928,11.195925,-43.504242,-0.963936,0.249575,-0.141091
921306436,26.010164,5.985877,-26.581287,-0.958267,0.409708,-0.109264
921326478,28.600021,5.760892,-9.586551,-1.002288,0.531672,-0.124805
921346521,29.868031,7.297829,2.141754,-1.005349,0.502181,-0.159770
921366563,37.500034,6.945454,3.407143,-0.959546,0.332983,-0.273310
921386605,32.230446,6.432524,-2.378104,-0.927215,0.179678,-0.315663
921406647,8.564631,8.029138,-10.712970,-0.968207,0.092658,-0.230342
921426689,-3.830208,10.274738,-18.702864,-1.003714,0.018528,-0.129890
921466771,30.877127,12.133659,-14.003112,-0.975956,-0.014901,-0.159600
921486813,39.401718,11.123029,-11.248764,-0.930150,0.111950,-0.282609
921506855,49.033886,14.487799,-8.837563,-0.904214,0.289676,-0.461573
921526897,37.424171,11.782871,-0.478398,-0.868394,0.375407,-0.519281
921546939,12.131021,12.716097,4.068828,-0.930172,0.202687,-0.342957
921566983,3.253832,5.879264,-0.082393,-0.979234,0.093968,-0.177468
921587025,6.193281,-1.591602,-3.602080,-0.970908,0.073100,-0.137612
921607066,13.653070,-4.820457,-4.136074,-0.961918,0.051269,-0.175270
921627108,23.744024,-7.392951,-4.350965,-0.941627,0.065288,-0.257437
921667191,13.113838,-4.130310,-6.826705,-0.971468,0.139707,-0.284528
921687232,12.666212,-6.579991,-7.940813,-1.003315,0.138084,-0.230673
921707274,17.807957,-13.955767,-7.651553,-1.012303,0.134425,-0.166473
921727316,27.216612,-24.517082,-5.750014,-1.003108,0.150478,-0.121335
921747358,38.732754,-34.416924,-1.278103,-0.992703,0.194615,-0.115966
921767400,35.694302,-40.625031,6.097352,-0.991003,0.267358,-0.099736
921807485,-11.147776,-38.039494,27.784389,-0.995540,0.483493,-0.073810
921827527,-0.794808,-42.104286,44.373238,-0.931551,0.566992,-0.138282
921847569,1.344979,-52.122532,58.903275,-1.002916,0.644277,-0.068779
921867611,-10.078333,-66.134048,73.076393,-1.187233,0.774059,0.069746
921887651,-31.727409,-83.275047,92.937996,-1.393028,0.919747,0.279657
921907693,-79.099358,-105.804169,116.773842,-1.558750,1.025286,0.573567
921927735,-101.987129,-123.019371,141.533386,-1.693365,0.995185,0.571337
921947777,-44.835365,-132.511642,158.476501,-1.697728,0.636363,0.284816
921967819,36.041561,-136.229752,146.967590,-1.518655,0.220354,0.166708
921987861,55.202286,-163.594910,127.428963,-1.401717,0.066818,0.111894
922007903,32.375927,-139.123184,132.850418,-1.421698,0.395031,-0.041265
922027946,26.522686,-96.207741,155.175934,-1.534048,0.757602,0.327433
922047988,-21.032259,-101.428505,165.914886,-1.510293,0.790594,0.369059
922068030,-131.505341,-120.071037,153.333450,-1.329659,0.831568,-0.033494
922088072,-171.091446,-119.403954,142.746811,-1.203515,1.023980,0.195140
922108113,-193.407074,-112.667175,139.826675,-1.072533,0.804169,0.101907
922128154,-205.003510,-107.043266,135.537842,-0.853724,0.614948,-0.020686
922148196,-182.458588,-107.325882,129.464600,-0.772137,0.541489,0.102042
922168238,-171.259247,-106.180855,123.163940,-0.735544,0.428718,0.137881
922188280,-162.978088,-104.312225,132.067780,-0.783131,0.554543,0.088584
922208322,-152.635147,-102.076889,140.841843,-0.665160,0.483991,0.134752
922228364,-139.099808,-99.902100,142.366867,-0.441782,0.202662,0.160370
922268449,-102.196899,-69.729156,137.933548,-0.195707,0.131021,0.176219
922288491,-86.061127,-52.993767,125.602814,-0.109271,0.141196,0.201632
922308533,-87.864792,-36.989758,104.451233,-0.037517,0.042926,0.188134
922328596,-83.120277,-18.743368,78.767548,0.039372,-0.075329,0.151358
922348615,-60.567291,0.265454,54.596699,0.006824,-0.168081,0.274755
922368657,-35.929916,20.815170,38.625160,-0.049077,-0.175143,0.314255
922388699,-13.685904,32.129021,26.966644,-0.093482,-0.148610,0.385186
922408741,5.829137,37.189224,15.580566,-0.097899,-0.114381,0.452452
922428783,27.396839,43.317760,4.803555,-0.157198,0.003611,0.606228
922448825,42.944469,48.177490,-4.938159,-0.254661,0.128667,0.707897
922468868,50.996708,48.669559,-14.622337,-0.327125,0.228624,0.767460
922488910,52.529320,45.684967,-22.133911,-0.347319,0.281141,0.786191
922508952,55.501137,42.278366,-27.745775,-0.352420,0.350705,0.772351
922528994,62.577179,39.527252,-32.202789,-0.330998,0.384692,0.753775
922549036,64.402596,37.774757,-35.393017,-0.321959,0.372056,0.730374
922569076,67.209686,39.098488,-37.856220,-0.324682,0.345538,0.700656
922589118,73.370872,42.231293,-39.793457,-0.323738,0.331808,0.651045
922609160,81.171364,46.495377,-42.817150,-0.301867,0.265964,0.567951
922629202,90.583649,50.047676,-51.120525,-0.280153,0.212968,0.475271
922649244,104.101578,52.701866,-61.861042,-0.304231,0.220117,0.408784
922669286,136.132492,55.586082,-72.907486,-0.375230,0.340984,0.385322
922689330,137.377151,66.692978,-84.471664,-0.481774,0.439821,0.392533
922709372,127.564308,74.784958,-97.266991,-0.558290,0.473672,0.339131
922729413,120.143486,81.112442,-109.306030,-0.604977,0.499640,0.280362
922769497,81.979561,87.439476,-128.720673,-0.697836,0.423239,0.142299
922789538,111.130554,91.190628,-129.870468,-0.848599,0.448018,0.034834
922809580,159.676880,90.477753,-132.764114,-0.988765,0.602809,0.018804
922829622,144.618393,99.889709,-138.018265,-1.058682,0.617333,0.027158
922849664,108.950089,113.509964,-145.072128,-1.052436,0.531686,-0.032629
922869705,98.676033,118.925674,-154.343063,-1.059855,0.439251,-0.119838
922889748,84.359650,122.907784,-165.370956,-1.167303,0.433506,-0.144023
922909790,69.168587,143.900146,-168.659027,-1.312247,0.383381,-0.154361
922929833,68.036858,156.339020,-162.820236,-1.420373,0.382221,-0.145463
922949875,61.314240,152.811615,-156.206482,-1.428207,0.622132,-0.206898
922969916,7.524583,114.023422,-142.972336,-1.557150,1.095356,0.013876
922989958,-86.724106,62.472439,-113.334793,-1.426689,1.230672,0.450042
923009998,-147.732025,79.393547,-75.319695,-1.252492,1.210667,0.301056
923030040,-134.944168,125.198273,-41.569351,-1.501022,1.293345,-0.138897
923050082,-69.877510,96.007149,-24.396889,-1.967430,1.165253,0.677317
923090166,111.849495,13.043843,35.006077,-0.940372,0.033896,0.275751
923110208,50.357502,-30.214838,17.209742,-0.900036,-0.797301,0.085615
923130250,23.139116,10.619139,-18.625204,-0.794238,-0.646033,-0.118991
923150293,102.180801,1.029387,-23.192200,-0.926144,0.475775,-0.587805
923170335,56.536190,3.659135,-0.030412,-0.820358,1.247678,-0.828097
923190377,-31.738728,39.100426,12.303036,-0.836792,0.746438,-0.284413
923210419,-53.457348,21.426428,3.410485,-1.006890,0.326923,0.185406
923230460,-54.709549,5.304281,0.281710,-0.991193,0.246546,-0.051583
923250502,-25.918365,6.931465,7.212359,-0.922783,0.261069,-0.218687
923270544,-15.148182,14.474966,14.481678,-0.912946,0.178388,-0.262135
923290586,-2.240025,10.081343,17.897329,-0.939496,0.071349,-0.311519
923310628,4.628174,6.703378,14.116199,-0.954958,0.018239,-0.330431
923330669,6.402087,4.237013,7.479892,-0.975072,0.126293,-0.263895
923350711,3.979575,-1.012943,4.643521,-0.974066,0.197398,-0.261595
923370754,-6.077375,-1.082908,5.462389,-0.946377,0.176169,-0.301609
923390796,-9.684546,-0.938833,6.247806,-0.968050,0.181301,-0.328104
923410838,-3.912431,-1.453151,8.897957,-0.972390,0.189810,-0.293518
923430880,2.907318,-2.316350,9.478504,-0.956202,0.191520,-0.386059
923450921,11.410624,4.131898,6.032197,-0.890393,0.244560,-0.500140
923470963,-3.490337,7.662906,2.410838,-0.907703,0.300636,-0.425549
923491005,-19.034929,7.349884,1.924181,-0.937935,0.260639,-0.335625
923511046,-18.072985,8.114588,0.890706,-0.950737,0.156541,-0.322354
923531088,-3.618565,2.129619,0.386493,-0.964934,0.143443,-0.278983
923551130,22.447199,-8.945086,4.430555,-0.921617,0.236601,-0.269495
923571172,22.536385,-10.091948,12.710109,-0.893965,0.333072,-0.264301
923591216,25.072971,-5.860070,17.879372,-0.907682,0.406163,-0.249853
923611258,27.787743,-9.628910,22.160742,-0.928036,0.559916,-0.225483
923651341,6.554100,-13.827139,54.789036,-1.002038,0.640561,-0.066882
923671383,10.880029,-28.997238,74.518585,-0.968517,0.559705,-0.020571
923691424,21.047594,-37.571121,88.119034,-0.885196,0.280754,0.079108
923711466,35.755478,-63.988976,88.546616,-0.880361,0.284362,0.097923
923731508,64.713440,-84.020599,86.551407,-0.825322,0.175570,0.094810
923751550,91.124283,-72.633606,77.894653,-0.810126,0.123877,0.086898
923771592,88.411217,-76.190323,62.931774,-0.788108,0.244750,-0.130546
923791633,72.855675,-69.588264,57.772106,-0.824837,0.565709,-0.317107
923811677,48.892056,-46.532570,45.731453,-0.684951,0.610378,-0.290845
923831718,10.041101,-27.528652,30.984646,-0.711371,0.530773,-0.351582
923851760,-34.886364,-4.018601,14.841629,-0.789002,0.472565,-0.293978
923871802,-40.532078,19.207081,1.552078,-0.965168,0.473156,-0.246695
923891844,-36.461914,23.608198,-8.085505,-1.196079,0.427975,-0.153918
923911885,-24.517992,15.788110,-6.272013,-1.181529,0.277961,-0.149399
923931927,-1.463797,8.159822,-11.810164,-0.994028,0.251331,-0.188940
923951969,14.007972,9.910192,-19.914379,-0.903255,0.443430,-0.214889
923972011,0.328990,19.376726,-26.157764,-0.854905,0.616088,-0.243421
923992053,-26.442875,30.795347,-30.520283,-0.837797,0.637997,-0.225636
924012094,-44.472221,37.220997,-35.040157,-0.822908,0.575678,-0.190657
924032136,-55.073174,43.813965,-38.742352,-0.812847,0.489439,-0.166344
924052180,-49.016323,46.146156,-41.661873,-0.854891,0.414112,-0.152662
924072222,-41.097546,42.429852,-43.261566,-0.905751,0.365616,-0.119346
924092264,-29.424856,39.246712,-43.584770,-0.923356,0.349862,-0.101882
924112306,-17.971066,37.766293,-43.973469,-0.908105,0.345859,-0.095765
924132346,-10.757183,35.887440,-43.227512,-0.906630,0.342641,-0.096049
924152388,-0.700332,31.359562,-42.753593,-0.882864,0.373089,-0.147963
924172430,0.715824,32.825672,-42.843170,-0.905241,0.397211,-0.156086
924192472,3.219539,33.253757,-43.231613,-0.938852,0.344777,-0.171193
924212514,2.849013,30.700556,-47.372601,-0.932433,0.305037,-0.195871
924232555,3.980756,26.364662,-48.156055,-0.918617,0.315955,-0.246142
924252597,0.431688,27.278582,-46.190674,-0.881122,0.338421,-0.268491
924272641,-3.563549,32.551735,-43.807171,-0.868471,0.348632,-0.300733
924292683,-9.454362,34.458115,-41.808491,-0.936278,0.332066,-0.328761
924312725,-6.533654,26.601322,-41.587299,-0.943218,0.254852,-0.317787
924332766,-1.916271,17.123774,-39.438099,-0.947233,0.234935,-0.332872
924352824,1.474560,8.762693,-38.875782,-0.932508,0.208052,-0.402315
924372849,-4.219656,0.028686,-39.662945,-0.889856,0.239981,-0.371125
924392891,-9.301533,-2.526031,-42.584709,-0.904864,0.311749,-0.437142
924412933,-31.327751,3.136463,-40.693001,-0.876134,0.238410,-0.337833
924432975,-44.747646,9.559527,-42.751381,-0.910994,0.147245,-0.240112
924453016,-31.929066,6.470580,-31.629978,-0.929314,0.179328,-0.206085
924473058,-14.115069,4.365864,-19.718678,-0.888708,0.280740,-0.376102
924493102,-18.342644,10.918529,-7.606543,-0.883510,0.316084,-0.465560
924513144,-24.544037,10.638345,3.841301,-0.922182,0.296586,-0.409749
924533186,-21.688589,6.893864,6.822236,-0.970761,0.125398,-0.287027
924553228,0.429448,-5.831575,5.260984,-0.977982,0.053972,-0.228219
924593310,12.008391,-15.958480,1.085958,-0.958916,0.115572,-0.256289
924613352,16.096918,-8.632224,4.403991,-0.934055,0.187970,-0.318756
924633394,10.471562,-2.573937,7.899933,-0.913145,0.246857,-0.286882
924653436,8.809862,-5.829868,10.838423,-0.925313,0.282628,-0.251326
924673478,-2.752674,-4.869351,11.857512,-0.911714,0.279659,-0.233049
924693519,-10.819569,-0.311914,12.325584,-0.961432,0.220543,-0.216312
924713562,-6.949193,-2.316574,9.384820,-0.939625,0.161694,-0.261883
924733605,-13.778784,0.067596,7.399933,-0.918822,0.149610,-0.246597
924753647,-29.540176,1.374146,6.094767,-0.926814,0.136231,-0.249564
924773689,-25.371944,-0.396344,5.428036,-0.951800,0.165281,-0.173076
924793731,-5.557147,-10.842142,6.753946,-0.978837,0.209026,-0.144512
924813771,3.553561,-10.593173,9.715400,-0.956875,0.216887,-0.216618
924833813,-7.808364,-8.972202,7.305766,-0.971585,0.209754,-0.232029
924853855,-19.966558,-12.230580,5.268697,-0.963020,0.209474,-0.318046
924873897,-13.582462,-3.112841,4.307055,-0.994302,0.127728,-0.309509
924893939,-5.822766,-4.879645,0.436871,-0.978398,0.082104,-0.273581
924913981,5.598960,-11.184551,-0.826748,-0.964126,0.115315,-0.245185
924934023,13.083050,-6.909909,0.370341,-0.941548,0.128952,-0.218959
924954066,9.198767,-7.008435,-0.403459,-0.949125,0.151171,-0.133714
924974108,6.343984,-12.767545,1.444038,-0.953179,0.230982,-0.171654
924994150,0.347339,-14.336718,4.813463,-0.932241,0.378713,-0.255224
925014192,-8.758764,-10.674210,6.695070,-0.875952,0.425616,-0.289132
925034232,-21.786106,-6.170996,7.713195,-0.930113,0.290708,-0.246903
925054274,-22.523685,-5.804590,7.767423,-0.951358,0.191824,-0.257486
925074316,-13.090399,-7.024574,6.566510,-0.963107,0.203234,-0.241685
925094358,-1.512308,-11.811863,6.917517,-0.976695,0.197919,-0.261384
925114400,15.854275,-15.186652,7.457943,-0.968932,0.058449,-0.279856
925134442,42.174389,-19.056570,7.224771,-0.944491,0.017269,-0.292385
925154484,67.857712,-22.032682,6.537134,-0.957660,0.121052,-0.308011
925174527,75.795479,-25.880222,6.222399,-0.979052,0.174612,-0.282032
925194569,78.000275,-29.658634,5.370858,-0.991285,0.224614,-0.229476
925214611,76.249306,-33.170380,4.909677,-0.964958,0.376653,-0.189170
925234653,60.484699,-34.081478,6.688340,-0.937125,0.304197,-0.149121
925254695,58.142410,-34.852375,6.384105,-0.958234,0.261618,-0.133960
925274735,74.280724,-40.193192,10.275583,-0.969172,0.257893,-0.152261
925294777,96.000908,-48.452667,16.136509,-0.959359,0.122478,-0.262873
925314819,114.769272,-53.137547,20.734928,-0.924829,0.063765,-0.427457
925334861,123.732048,-54.390614,21.800404,-0.908900,0.092439,-0.545567
925354903,119.365479,-47.242863,13.745975,-0.954802,0.176333,-0.621976
925374945,104.699707,-42.617664,8.019808,-0.961894,0.102078,-0.663625
925394989,99.845528,-33.017231,-1.642494,-1.029102,0.012913,-0.569611
925415031,114.150810,-34.531242,0.796190,-1.016343,-0.006064,-0.386545
925435073,131.551422,-39.556236,2.231215,-0.967933,0.068106,-0.257295
925455114,159.444977,-45.010506,12.374986,-0.995606,0.262983,-0.102315
925475156,193.744232,-57.399578,38.237991,-1.083934,0.449103,0.061385
925495209,237.886475,-79.885216,73.775055,-1.111415,0.340402,-0.028814
925515238,313.697418,-105.164238,95.549210,-1.003908,0.045845,-0.293051
925535280,413.421967,-115.829384,97.403130,-0.940269,-0.242007,-0.506543
925555322,492.381836,-114.751480,84.861320,-0.936776,-0.351371,-0.540965
925575364,505.312592,-120.800919,66.775772,-0.970495,-0.175929,-0.458615
925595406,481.841003,-136.336334,57.172852,-0.877513,0.101537,-0.479816
925615448,467.855103,-129.528793,45.799660,-0.717708,0.244482,-0.605180
925635491,423.106720,-92.164421,19.192656,-0.619476,0.299735,-0.619578
925655533,357.032837,-78.138947,3.881543,-0.762078,0.149948,-0.399355
925675576,311.308716,-115.597443,-17.981968,-0.910343,-0.092099,-0.382211
925695617,266.778534,-125.452042,-42.112179,-0.893639,-0.173007,-0.660082
925715657,245.837372,-87.758537,-48.183289,-0.938861,0.011252,-0.857749
925735700,215.497421,-28.764791,-45.841400,-0.947338,0.204798,-0.924225
925755741,193.152466,12.015922,-33.685829,-0.878371,0.338151,-1.017424
925775783,175.211700,38.502769,-20.742561,-0.836987,0.483093,-0.909544
925795825,120.008751,44.354454,-18.323597,-0.827016,0.605909,-0.733452
925815867,62.058235,40.955631,-25.895864,-0.821116,0.579006,-0.438969
925835909,13.103951,36.513939,-36.022163,-0.886109,0.385325,-0.173549
925855952,1.756471,47.752953,-43.191605,-1.051908,0.127778,-0.127554
925875994,16.653860,37.925381,-34.949429,-1.080060,0.184140,-0.101211
925896036,77.776512,29.711756,-7.367330,-1.176501,0.523852,-0.265149
925916078,48.213192,31.043938,9.038505,-1.803525,0.832641,0.113503
925936123,50.415043,-6.238929,22.892128,-1.002332,0.691857,0.399397
925956160,97.166412,-29.660862,7.946379,-0.546864,0.247576,-0.221638
925976202,83.044693,5.104988,-8.604816,-0.749663,0.075656,-0.598053
925996244,87.229797,29.661415,-9.874320,-0.894279,0.299167,-0.609946
926016286,6.970944,21.299564,2.587643,-0.847940,0.640880,-0.518107
926036328,-50.157379,13.441273,9.213101,-0.837850,0.648722,-0.343345
926056370,-47.731216,6.739860,7.208292,-0.980046,0.372559,-0.264592
926076414,-19.047277,-5.146034,12.998712,-0.983399,0.311901,-0.239310
926096455,3.759357,-5.483190,21.625093,-0.978482,0.265702,-0.180091
926116497,20.010809,-4.867944,24.994061,-0.985101,0.164045,-0.163632
926136539,35.511860,-8.202539,23.664776,-0.976866,0.073766,-0.164079
926156581,49.570274,-16.561487,22.632116,-0.944227,0.089182,-0.248381
926176622,59.295860,-13.078464,21.697401,-0.960148,0.173099,-0.223666
926196664,69.405304,-17.702879,19.730022,-0.973923,0.280536,-0.201365
926216706,69.705841,-17.320881,26.384596,-0.979217,0.294251,-0.197402
926236747,62.070881,-20.570505,30.337656,-0.925440,0.292137,-0.271886
926256789,43.350113,-17.758966,35.036636,-0.850474,0.396228,-0.338178
926276831,14.046228,-11.693020,44.659191,-0.851159,0.517989,-0.301975
926296875,5.697966,-14.816377,58.620605,-0.907621,0.476894,-0.181324
926316916,7.198861,-24.299204,65.417892,-1.011581,0.296319,0.009100
926336958,11.589524,-48.226028,70.645981,-1.136435,0.039038,-0.070534
926357000,28.768940,-60.493523,62.228653,-1.239566,-0.131292,-0.216113
926377042,60.479931,-34.848854,58.155579,-1.240432,-0.091343,-0.136743
926397083,118.390915,-18.498566,56.950714,-1.080461,-0.129863,-0.028511
926417125,208.685837,-38.140175,42.513081,-1.006798,-0.244948,-0.158435
926437167,269.326416,-46.682030,28.854683,-0.909101,-0.316003,-0.317422
926457208,261.433533,-39.083054,20.027172,-0.746333,-0.350428,-0.372115
926477251,200.132507,-3.472374,4.467957,-0.590589,-0.326095,-0.493736
926497292,132.141479,39.092575,-10.019167,-0.565049,-0.257524,-0.518681
926517335,93.797798,43.462620,-20.448221,-0.604015,-0.128139,-0.652048
926537378,89.629837,30.116966,-34.932262,-0.760747,0.185057,-0.586113
926557419,24.981009,6.461623,-49.310364,-1.528575,0.722580,0.151497
926577464,-149.705841,-47.212357,-35.436611,-2.260114,1.889252,0.320450
926597504,-89.338203,8.987148,17.401339,-0.728861,1.379030,-0.554047
926617544,44.812996,23.517195,-6.204368,-0.525971,0.070381,-0.395709
926637586,46.695827,-23.245373,-29.568407,-0.788425,-0.507937,-0.103771
926657628,9.967350,-4.393835,-44.544727,-0.889937,-0.366971,-0.188039
926677670,5.206954,41.570267,-31.028564,-1.002365,-0.006684,-0.181685
926697712,12.952306,27.771210,-15.093270,-1.053413,0.316012,-0.204283
926717754,16.216057,-7.423147,-4.886993,-0.976380,0.444783,-0.336790
926737795,14.350254,-6.244627,-14.222612,-0.867963,0.307058,-0.342636
926757839,8.461074,-7.812254,-19.096720,-0.934299,0.255329,-0.282711
926777881,-10.025313,0.082126,-12.397011,-0.909329,0.192235,-0.228103
926797922,-25.551441,3.924308,-7.500278,-0.907844,0.169702,-0.214150
926817964,-18.014158,7.318244,-3.916806,-0.957717,0.115066,-0.232930
926838018,-5.809538,6.668997,-3.323523,-1.030136,0.069569,-0.185345
926858047,-7.203084,0.267396,-7.272629,-0.990535,0.067372,-0.170733
926878089,-6.915261,0.300410,-9.485687,-0.944555,0.104543,-0.285162
926898131,-14.311728,4.827778,-9.421066,-0.929026,0.130498,-0.359957
926918172,-23.667803,5.681841,-8.730314,-0.931643,0.163975,-0.322620
926938214,-17.233425,4.870095,-6.369982,-0.944370,0.173338,-0.280748
926958257,-5.371371,4.660479,-2.901220,-0.987253,0.169274,-0.213325
926978300,9.494450,-2.803178,1.177525,-1.009843,0.243310,-0.105132
926998342,21.107264,-16.401014,7.939870,-0.982090,0.382788,-0.014763
927018384,37.941139,-37.379227,19.128376,-0.987540,0.522299,0.041479
927038426,66.079208,-66.333458,35.012627,-0.884865,0.710577,0.016108
927058467,83.711845,-83.916199,55.058197,-0.723861,0.890129,-0.112526
927098550,-27.000576,-46.759853,110.448807,-1.037404,0.882392,-0.166821
927118592,-87.350708,-13.447599,136.269958,-1.458251,0.737831,-0.049748
927138634,-90.194679,-42.759926,129.964218,-1.740888,0.244079,0.491231
927158676,-71.902252,-69.322388,116.366638,-1.583175,-0.465129,0.156406
927178718,-38.203110,-43.259037,92.908867,-1.243948,-0.388330,-0.484061
927198761,80.215492,-68.345963,66.857887,-1.060446,0.018995,-0.652906
927218803,82.843414,-42.928112,59.902332,-0.901513,0.162430,-0.465850
927238845,15.099030,4.071518,53.521420,-0.778496,0.103266,-0.228039
927258887,-14.074900,6.943112,38.256084,-0.647671,0.135583,-0.204599
927278929,-39.497261,8.823363,21.990929,-0.601036,0.250947,-0.098980
927298969,-77.822281,13.815913,7.920249,-0.621588,0.303467,0.068904
927319011,-129.586121,15.263586,-4.635912,-0.674434,0.253898,0.199692
927339053,-178.675232,12.227092,-15.056389,-0.693643,0.269493,0.241060
927359095,-186.479828,15.506615,-18.894821,-0.609478,0.389431,0.174624
927379137,-156.096680,26.898136,-17.774014,-0.534970,0.448594,0.189744
927399179,-105.745094,34.330467,-19.195015,-0.634930,0.606508,0.311449
927419221,-36.776936,40.502167,-12.460451,-0.855234,0.840353,0.334736
927439264,8.003646,48.908138,16.686317,-1.086477,0.816422,0.333783
927459306,27.155281,30.334713,21.360376,-0.912633,0.431619,0.323427
927479348,76.289841,41.100048,2.553626,-0.926073,0.393751,-0.135233
927499390,170.853912,35.623405,-26.935259,-1.750564,0.644278,-0.138095
927519430,192.266113,4.678813,20.850882,-1.542994,1.317986,-0.119004
927539472,119.875122,-54.435123,27.376591,-0.687624,0.719498,-0.172118
927559514,-73.768692,-89.020821,6.188714,-0.249746,-0.187682,-0.330722
927579556,-148.531082,25.302422,-17.590519,-0.403822,-0.361292,-0.200304
927599598,-52.963661,51.760174,-16.258446,-1.129477,-0.055516,-0.883354
927619640,37.118042,51.422123,-11.667472,-1.431803,-0.046398,-0.553885
927639682,60.310833,20.494850,-27.396566,-1.088793,-0.036079,-0.192589
927659725,59.114662,18.555853,-48.319641,-0.912839,0.148127,-0.282351
927679767,21.652678,30.521996,-51.017815,-0.935948,0.239553,-0.252707
927699809,32.467209,36.961197,-46.267498,-0.980447,0.045711,-0.362998
927719851,66.311501,35.153244,-46.683716,-0.997757,0.014772,-0.371446
927739891,78.711304,35.417164,-50.195553,-1.001699,0.177414,-0.332932
927759933,62.080303,40.435108,-52.132904,-0.993615,0.281896,-0.296465
927779975,40.401581,42.174667,-58.498966,-0.963392,0.187759,-0.325829
927800017,39.017319,40.600494,-64.219574,-0.925454,0.157192,-0.366581
927820059,46.835728,38.987297,-62.036201,-0.899046,0.181332,-0.367225
927840101,50.678116,36.842094,-55.326839,-0.894270,0.217548,-0.347728
927860143,41.844929,37.494061,-51.404705,-0.889613,0.271985,-0.367785
927880186,31.488693,31.875872,-46.054878,-0.935256,0.281639,-0.335619
927900228,28.637486,11.648347,-44.505127,-0.880985,0.260138,-0.312845
927920270,33.094894,1.743263,-42.394581,-0.899875,0.306471,-0.273946
927940312,36.299404,1.643977,-35.415325,-0.883210,0.403532,-0.233998
927960378,19.629700,5.268415,-26.997383,-0.877842,0.401713,-0.206615
927980404,13.587577,6.276217,-20.277603,-0.872039,0.384943,-0.182638
928000446,19.267269,3.232103,-15.350190,-0.846696,0.460509,-0.182728
928020488,16.539856,4.639343,-10.692359,-0.885165,0.473493,-0.215432
928040529,4.850692,13.518904,-10.861618,-0.941185,0.308455,-0.249956
928060571,-20.649603,23.920046,-13.393762,-1.018378,0.205103,-0.155384
928080613,-0.036531,15.258431,-16.696564,-0.994927,0.202904,-0.192588
928100656,26.740559,8.630448,-15.345170,-1.035118,0.191492,-0.207458
928120698,30.995546,0.245391,-13.794737,-1.086089,0.180886,-0.153770
928140740,38.513161,-6.135154,-8.957474,-1.061774,0.242118,-0.136075
928160782,49.582016,-5.287643,-1.767851,-1.057388,0.432277,-0.139453
928180824,30.701126,-4.705004,2.402796,-1.246570,0.485806,-0.157218
928200864,0.298955,-20.581310,3.898181,-1.201700,0.510710,-0.062365
928220906,22.099821,-47.421036,13.135168,-1.222712,0.421404,0.135935
928240948,65.205376,-79.191315,28.254025,-1.227934,0.324107,0.235912
928260990,70.784767,-96.949417,47.712467,-1.092234,0.368791,0.162769
928281032,71.281616,-96.071228,68.185478,-0.942497,0.220447,-0.023295
928301074,97.061798,-78.793297,90.056435,-0.889235,0.043623,-0.261487
928321116,98.982590,-61.963890,109.444847,-1.055592,0.021790,-0.397079
928341159,44.058422,-54.946575,121.021645,-1.369777,0.153325,-0.285231
928361201,-39.150337,-52.998749,117.768150,-1.474310,0.240998,-0.243272
928381243,-67.813087,-48.955784,99.660347,-1.267156,0.136168,-0.320203
928401285,-62.714321,-29.893314,88.502762,-1.164849,0.013749,-0.394933
928421326,-52.288750,-11.568139,81.379250,-1.154304,-0.134293,-0.442464
928441367,-30.550123,-2.925291,75.374458,-1.062242,-0.208876,-0.466658
928461410,-0.193392,0.405894,67.424736,-0.907022,-0.174126,-0.466351
928481452,12.467982,12.162252,55.779594,-0.793220,-0.158626,-0.453756
928501493,23.776365,30.030882,40.418987,-0.722472,-0.184825,-0.408245
928521535,29.819792,40.034000,26.006308,-0.653413,-0.272986,-0.355620
928541577,18.993629,39.625389,8.649821,-0.576764,-0.338027,-0.255356
928561620,-13.617799,37.027241,-10.957440,-0.585474,-0.343399,-0.108935
928581662,-46.640453,39.751793,-31.422600,-0.688888,-0.305254,-0.043139
928601704,-85.065109,7.107907,-43.319828,-0.861138,-0.069519,0.114783
928621746,-214.251740,-40.178673,-52.570030,-1.049127,0.816240,0.613745
928641787,-375.432648,-43.613335,-31.038231,-0.915704,2.163040,-0.000832
928661829,-194.586334,79.554375,39.429455,-0.947887,2.051954,-0.424403
928681871,53.454865,39.485313,53.202541,-0.926922,0.486032,0.245300
928701913,174.426712,34.361786,36.521870,-0.678367,-0.298734,-0.556292
928721954,238.619553,-1.468997,-3.883676,-1.459733,-0.944420,-0.109675
928741996,-24.159275,-83.301788,-33.714439,-1.691554,-0.423653,0.897145
928762038,-105.999771,-16.222155,1.208352,-0.987513,0.592633,0.001765
928782082,31.057022,71.198433,-5.958415,-0.728287,0.777194,-1.127583
928802124,134.966370,59.535400,-12.929781,-0.955542,0.112336,-1.058103
928822165,-26.585705,22.566187,-38.830559,-1.068962,-0.204276,-0.012825
928842207,-50.748669,10.682394,-50.229385,-0.840824,0.051397,-0.258327
928862248,-20.573481,32.399921,-45.121704,-0.958030,0.090303,-0.462174
928882290,-15.528231,34.251202,-48.163162,-0.999279,0.090922,-0.413378
928902332,-8.196576,30.873066,-51.777229,-0.883058,0.083865,-0.418155
928922373,-1.444657,33.902771,-50.247211,-0.890434,0.101086,-0.494838
928962457,-27.866121,31.960329,-48.259331,-0.987148,0.104568,-0.248230
928982499,-18.965645,21.590351,-46.783077,-0.967937,0.073181,-0.220561
929002543,5.169477,15.378049,-41.688099,-0.922690,0.092346,-0.288350
929022585,19.299030,12.593769,-36.719063,-0.924706,0.166134,-0.306291
929042627,16.902315,6.389717,-32.971375,-0.956396,0.230442,-0.270120
929062668,11.934850,1.963963,-28.664242,-0.989556,0.264368,-0.202806
929082710,16.971558,-6.070602,-26.436825,-0.988259,0.323068,-0.197668
929102751,25.195148,-9.166655,-22.788422,-0.959097,0.413403,-0.268249
929122793,23.340155,-1.620636,-18.158895,-0.938478,0.402881,-0.295634
929142835,15.254169,0.645502,-17.033005,-0.937993,0.320456,-0.224926
929162877,12.693666,-5.371078,-17.087259,-0.955296,0.228371,-0.173662
929182919,5.702644,-8.733212,-14.929430,-0.981618,0.170711,-0.161475
929202960,2.352342,-2.786023,-14.446322,-0.971527,0.131907,-0.171878
929223004,16.109459,-0.745211,-16.016731,-0.958421,0.102996,-0.214991
929243046,36.386288,-1.889261,-16.515978,-0.947558,0.123147,-0.290795
929263088,41.316277,-3.833042,-12.384843,-0.961062,0.187433,-0.319398
929283130,21.040194,-0.705371,-3.646434,-0.974212,0.251995,-0.297335
929303172,-6.328349,7.595445,8.054893,-0.997740,0.269141,-0.206603
929343254,-11.156799,-1.699691,31.243919,-1.012574,0.195477,-0.052425
929363296,9.107937,-13.095551,42.400879,-1.008247,0.190180,-0.072209
929383338,37.789543,-16.845901,51.429165,-1.027853,0.133847,-0.107377
929403380,61.372261,-21.109650,48.238556,-1.054447,-0.045974,-0.228903
929423422,58.063789,-8.002151,36.375896,-1.049670,-0.268142,-0.400429
929443464,43.988949,-14.650134,20.174295,-1.026448,-0.426447,-0.557976
929463507,23.090611,-3.510615,-0.785194,-0.957567,-0.359417,-0.498354
929483549,-22.333557,5.325572,-17.872435,-0.934616,0.021702,-0.289607
929503591,-42.093975,15.153563,-19.777353,-0.886151,0.281797,-0.131230
929523632,-51.259941,13.411348,-11.950208,-0.901827,0.210893,-0.007090
929543673,-67.388977,8.449303,-6.337702,-0.862217,0.153397,-0.129582
929563715,-63.063881,5.916219,-0.975265,-0.843413,0.201186,-0.146237
929583757,-30.541782,-7.229955,5.350983,-0.824168,0.195037,-0.187295
929603799,9.158150,-10.364273,10.024628,-0.754545,0.012614,-0.253031
929643883,73.357056,-2.772718,-3.692553,-0.940142,-0.318543,-0.393653
929663925,65.739777,13.055004,-10.696652,-1.345659,-0.011082,-0.405125
929683968,32.038567,12.953085,-2.458452,-1.292783,0.716801,-0.339586
929704010,4.847780,12.358223,2.969382,-0.882076,0.498556,-0.347146
929724052,-23.529280,6.370574,-16.987930,-1.030519,-0.190620,-0.083585
929744094,-24.980284,-3.925932,-33.810589,-0.999252,-0.190584,-0.122666
929764134,-17.152918,8.752697,-30.455231,-0.899669,0.072219,-0.310344
929784176,-30.227255,18.760317,-22.051413,-0.876844,0.179181,-0.415664
929804218,-28.545740,23.250425,-15.679733,-0.899450,0.096228,-0.375858
929824260,-13.708170,17.062263,-11.971489,-0.969944,0.024776,-0.243185
929844302,4.907264,9.507170,-7.948098,-1.027488,0.075289,-0.168521
929864344,18.706348,3.164728,-2.855510,-0.992921,0.148689,-0.158637
929884386,22.712183,0.230100,-0.307305,-0.946597,0.207710,-0.218724
929904429,13.151410,2.481188,0.575988,-0.937815,0.253134,-0.327034
929924471,2.562831,3.960932,1.595426,-0.928811,0.254206,-0.350646
929944513,-2.494485,5.319522,1.874103,-0.928332,0.171471,-0.344809
929964555,-1.139636,3.358378,0.919555,-0.952358,0.094652,-0.353784
929984595,-3.450769,3.320505,0.578496,-0.968409,0.072003,-0.295908
930024679,-7.514955,-1.420615,0.139306,-0.962850,0.082814,-0.292496
930044721,-2.699900,0.019479,2.945292,-0.964449,0.086747,-0.299424
930064763,1.031894,-0.968917,6.158475,-0.971693,0.095619,-0.269641
930084805,11.288947,-0.575694,9.887638,-0.955228,0.087674,-0.270363
930104847,17.354265,-2.709445,13.234582,-0.955825,0.098190,-0.253862
930124890,16.884876,-3.123726,14.998428,-0.951591,0.137414,-0.215743
930144932,19.406445,-3.208940,16.175690,-0.954241,0.160276,-0.215238
930164974,25.782402,-1.813910,18.357197,-0.944510,0.162182,-0.267641
930185016,20.006233,0.858894,17.756287,-0.949901,0.154322,-0.261436
930205058,9.075356,0.359975,12.932226,-0.947317,0.149562,-0.259760
930225099,2.705845,-0.307467,8.736680,-0.935684,0.129679,-0.290194
930265182,-4.693510,2.026438,3.877437,-0.954713,0.085521,-0.261481
930285224,-0.943297,2.812992,3.876770,-0.950598,0.083235,-0.280677
930305266,-0.483668,3.684403,2.995830,-0.947730,0.094805,-0.273324
930325308,1.125376,5.258437,1.986170,-0.956986,0.119987,-0.261602
930345352,10.096897,4.234794,2.725020,-0.947849,0.116228,-0.298805
930365393,17.819077,3.401143,4.225309,-0.960194,0.065427,-0.291172
930385435,23.761250,-0.775800,4.831244,-0.969993,0.025058,-0.255127
930405477,38.435387,-5.982555,4.852929,-0.957427,0.055831,-0.265910
930425519,48.712402,-6.729475,3.964148,-0.947604,0.133459,-0.299793
930445560,49.265617,-7.368434,1.825882,-0.958784,0.213213,-0.365944
930465602,39.705219,-12.724054,-2.330130,-0.938301,0.324454,-0.387184
930485644,12.158284,-16.741404,-8.915580,-0.878795,0.402939,-0.367022
930505685,-19.011353,-13.559275,-15.129772,-0.856998,0.361349,-0.349804
930525727,-45.901276,-9.823601,-17.778698,-0.911129,0.232487,-0.291448
930545769,-61.568924,-9.416750,-20.210896,-0.960172,0.149407,-0.223212
930565811,-56.974922,-11.298841,-23.494047,-0.939706,0.138532,-0.212781
930585854,-43.000423,-9.859299,-26.776625,-0.916029,0.170775,-0.247594
930605896,-40.969330,2.244591,-28.567547,-0.912519,0.205739,-0.334712
930625938,-57.026329,18.173967,-31.118301,-0.931084,0.194067,-0.269311
930645980,-54.741688,18.684809,-37.263237,-0.920924,0.164202,-0.276843
930666020,-55.858135,18.747599,-45.688541,-0.967305,0.145377,-0.231225
930686062,-64.903267,11.356268,-52.426182,-0.992240,0.185601,-0.172949
930706104,-63.046562,5.380307,-54.543564,-0.984924,0.253318,-0.162084
930726146,-60.145092,-0.460080,-54.957817,-0.989006,0.348312,-0.173833
930746188,-62.936951,-11.057505,-55.278103,-0.988962,0.432959,-0.240738
930766230,-54.270863,-23.592869,-49.660755,-0.959916,0.440079,-0.358154
930786272,-45.435287,-36.049294,-39.503368,-0.952245,0.398882,-0.418412
930806315,-46.227600,-46.203621,-26.272419,-0.934371,0.361361,-0.415097
930826357,-63.559948,-47.375828,-16.325933,-0.878210,0.440524,-0.335331
930846399,-118.598831,-36.600544,-6.043255,-0.925542,0.598305,-0.172808
930866441,-192.498108,-22.668388,7.364880,-0.950875,0.690376,-0.040347
930886482,-245.839340,-32.922787,26.600552,-0.990279,0.638100,0.057867
930926565,-209.890442,-33.126797,66.908966,-1.284815,0.292436,-0.280782
930946607,-89.288246,-16.260584,63.664387,-1.144010,0.100072,-0.542802
930966649,-1.428200,-1.287325,52.053516,-0.952104,0.055606,-0.777062
930986691,-36.999779,24.887863,49.507172,-0.868415,0.016387,-1.123621
931006733,-91.535233,53.895828,46.298683,-0.865949,0.044230,-1.103041
931026777,-126.155884,59.467602,40.143494,-0.844953,0.120832,-0.808833
931046818,-186.527451,59.286354,15.961593,-0.844366,0.250687,-0.707305
931066860,-268.048859,53.040958,-20.972305,-0.764409,0.405882,-0.791318
931086902,-330.498138,73.645813,-41.080582,-0.744690,0.391579,-0.873973
931106945,-370.221771,104.463531,-37.168270,-0.794299,0.092722,-0.940204
931126985,-377.754059,114.486862,-35.847294,-0.876375,-0.240040,-0.801205
931147026,-359.930939,106.375206,-39.429096,-0.925586,-0.513374,-0.567220
931167068,-358.520264,109.723854,-50.222942,-1.015584,-0.349231,-0.250866
931187110,-416.271790,94.321083,-56.545227,-1.043375,-0.061964,0.025519
931207152,-473.018982,91.179520,-61.980785,-0.971863,0.066127,-0.069460
931227194,-421.063232,108.932213,-68.001564,-0.923354,0.024175,-0.325495
931247238,-292.097260,89.106964,-60.337791,-0.876330,-0.077430,-0.378361
931267279,-195.809494,39.632271,-51.991154,-0.726513,-0.008273,-0.455871
931287321,-196.725189,47.987694,-40.539375,-0.890650,0.079684,-0.505812
931307363,-183.867065,57.957085,-31.305124,-1.034187,-0.048513,-0.300975
931327405,-102.537575,35.631443,-28.639561,-0.939237,-0.277099,-0.190166
931347446,0.728284,26.448999,-27.994190,-0.787365,-0.373554,-0.301263
931367488,26.531889,44.249664,-29.879414,-0.788525,-0.146017,-0.440550
931387530,-50.929817,63.107105,-37.663105,-0.941091,0.209737,-0.512772
931407571,-139.415161,78.549973,-37.454140,-1.061726,0.487578,-0.582317
931427613,-95.743645,62.537094,-34.514980,-1.017639,0.229713,-0.577443
931447655,-52.925716,52.090057,-45.102489,-1.204804,0.007378,-0.181988
931467698,-111.937767,24.803934,-55.672012,-1.519810,0.356372,0.351751
931487740,-134.111115,-9.568546,-43.777985,-1.116104,0.672464,0.076240
931507782,-81.405548,-4.956361,-28.938471,-0.832515,0.445652,-0.381118
931527825,-65.477715,3.160186,-21.876238,-0.767678,0.099393,-0.457101
931547866,-79.373543,15.785140,-25.825262,-0.714352,-0.004000,-0.553638
931567907,-99.867378,34.604298,-31.806215,-0.882274,0.234102,-0.450425
931587949,-90.483292,28.174520,-30.696310,-1.023962,0.382061,-0.376993
931628033,-80.521835,9.507556,-38.291542,-0.939212,0.032573,-0.292693
931648075,-77.506493,10.486007,-39.226883,-0.915129,0.075286,-0.380963
931668117,-73.779999,18.607218,-36.721039,-0.943339,0.094008,-0.345569
931688159,-60.471260,18.363047,-36.462273,-0.949250,0.043826,-0.340911
931708202,-55.158169,17.181864,-38.345379,-0.945652,0.096781,-0.289986
931728244,-57.892361,14.547029,-37.815983,-0.950279,0.193213,-0.260037
931748286,-59.747246,14.266664,-32.933266,-0.933958,0.203548,-0.234071
931768328,-55.871357,14.320859,-26.630926,-0.929605,0.261720,-0.272507
931788368,-50.791382,7.806057,-17.860977,-0.929873,0.253431,-0.318400
931808410,-55.243019,1.827435,-10.917869,-0.926941,0.196033,-0.389168
931828452,-52.824402,1.061338,-8.532538,-0.962186,0.138454,-0.311470
931848494,-40.853222,-4.734377,-7.651080,-0.972808,0.069567,-0.351999
931868535,-27.983379,-6.397382,-8.588368,-0.989902,-0.020453,-0.289556
931888578,-12.376501,-8.213321,-9.238371,-0.985790,-0.020404,-0.310520
931908620,2.759835,-7.032176,-6.704401,-0.988364,0.027309,-0.286887
931928663,17.181917,-8.303822,-2.501088,-0.945976,0.076322,-0.298790
931948705,25.579567,-3.080580,3.936720,-0.918128,0.134313,-0.329357
931968747,18.547546,3.451024,7.449395,-1.016075,0.190769,-0.175617
931988789,9.498650,-12.479189,9.998130,-1.009485,0.201436,-0.024662
932008839,14.066149,-25.304424,15.252125,-1.011630,0.191130,-0.000219
932028871,13.427019,-30.332710,19.107306,-1.048790,0.228578,-0.052954
932048913,4.160721,-23.724178,22.035721,-1.012598,0.328695,-0.182129
932068955,-2.781164,-7.786613,26.119083,-0.973307,0.407998,-0.338712
932088997,-18.965651,14.324762,32.696655,-0.936819,0.419685,-0.529122
932109039,-52.555450,33.197216,26.464113,-0.916479,0.193754,-0.496983
932129080,-96.742218,20.857727,-1.427112,-0.940782,-0.131739,-0.255576
932149124,-123.053314,-4.823220,-26.330776,-0.908348,-0.280522,-0.118311
932169166,-112.762535,-11.709143,-33.823002,-0.873156,-0.262862,-0.100451
932209250,-44.558697,11.658671,-28.542448,-0.845885,-0.128089,-0.134304
932229292,-29.879940,14.055847,-27.846558,-0.792150,-0.175221,-0.269875
932249332,0.884829,23.916666,-30.287479,-0.750288,-0.177410,-0.269614
932269374,3.993193,22.773912,-32.465946,-0.866460,-0.118973,-0.265625
932289416,-7.785985,14.993580,-32.784447,-1.118970,0.022110,-0.162580
932309458,-39.642872,11.072139,-29.633478,-1.514690,0.332069,-0.129695
932329500,-47.093613,26.175678,-10.243001,-1.512864,0.635454,-0.224526
932349542,22.831930,4.326334,-3.677059,-0.892591,0.477205,-0.197328
932369584,2.465665,-16.589130,-15.678404,-0.776062,0.128120,-0.045131
932389627,-46.479481,-7.610214,-17.052282,-0.887873,-0.046091,-0.103812
932409669,-47.913826,12.672732,-6.789608,-0.945664,0.041484,-0.246493
932429711,-39.795547,17.115288,1.342898,-0.940123,0.228507,-0.357137
932449753,-26.401419,9.355365,4.022663,-0.962566,0.180902,-0.315228
932469793,-22.989719,5.026521,3.831183,-1.009403,0.012916,-0.194160
932489835,-13.286039,-3.059478,4.390640,-1.010666,-0.007292,-0.156152
932509877,10.588012,-3.397350,6.833851,-1.002410,0.045404,-0.221212
932549961,18.263977,-0.831753,6.917724,-0.938676,0.146367,-0.209235
932570003,26.338039,-1.820196,10.303532,-0.952711,0.128969,-0.254999
932590045,32.541424,-2.866720,10.937332,-0.944569,0.117234,-0.267954
932610088,29.893290,0.722940,9.864808,-0.947260,0.176743,-0.232568
932630130,22.296057,0.532140,9.564297,-0.940767,0.170056,-0.263220
932650172,14.509590,3.637231,4.668511,-0.938693,0.142921,-0.277521
932670214,2.937734,6.208744,-1.138732,-0.950984,0.172944,-0.262655
932690254,-5.173537,8.174482,-4.515298,-0.969882,0.156165,-0.280283
932710296,-8.224932,5.360249,-7.446163,-0.959303,0.117785,-0.291958
932730338,-8.364655,6.300907,-8.820978,-0.941552,0.131899,-0.259734
932750380,-8.374354,6.880183,-7.922660,-0.948986,0.141337,-0.253746
932770422,-6.981828,5.831896,-5.849051,-0.961815,0.143399,-0.245660
932790464,-3.895483,3.989011,-3.245319,-0.953334,0.143856,-0.256335
932810506,1.534909,2.681086,-1.014562,-0.974368,0.128127,-0.255252
932830549,3.604536,-1.527028,0.042032,-0.960841,0.105562,-0.273396
932850591,3.400085,-1.068728,-0.132009,-0.947555,0.100395,-0.275684
932870633,2.901803,0.153904,-1.042283,-0.957866,0.097791,-0.272122
932890675,2.684436,-0.806590,-2.435419,-0.958238,0.101490,-0.261890
932910716,-1.361673,-1.776060,-2.739087,-0.970738,0.112977,-0.254580
932950799,0.488172,-0.526516,-0.319698,-0.948868,0.124968,-0.261510
932990884,0.627657,3.351887,-0.054784,-0.962174,0.124414,-0.240637
933010926,3.330406,1.258763,0.989774,-0.967648,0.123119,-0.251300
933030968,6.075488,1.647922,1.285560,-0.954937,0.108754,-0.243983
933051011,7.922292,1.563507,1.725521,-0.951549,0.121220,-0.249025
933071053,10.369905,-2.031933,1.125111,-0.954394,0.101783,-0.272840
933091095,7.139827,-0.234552,-1.759994,-0.942060,0.122126,-0.239639
933111136,2.212111,4.302288,-3.270823,-0.963118,0.151730,-0.243172
933131176,-2.382320,2.950886,-3.437952,-0.972766,0.141869,-0.225543
933151218,-5.121909,0.026864,-3.760756,-0.960908,0.130348,-0.242525
933171260,-6.599907,0.338782,-2.793668,-0.960828,0.118082,-0.267848
933191302,-9.187339,-1.867746,-2.917640,-0.953166,0.080374,-0.288158
933211344,-6.167856,1.325779,-4.624987,-0.956692,0.064265,-0.265386
933231386,-5.773044,2.149861,-4.144734,-0.976205,0.062384,-0.264850
933251428,-6.189358,0.750902,-2.618292,-0.966452,0.052111,-0.274513
933271471,2.445040,-0.449259,-1.073462,-0.963035,0.078268,-0.243409
933291514,5.075535,-2.803362,1.210265,-0.962350,0.085912,-0.266018
933311556,3.249746,-2.490660,1.462697,-0.953188,0.088388,-0.286551
933331597,4.348279,-0.245329,0.979142,-0.955455,0.105320,-0.249955
933351639,3.403577,-0.871863,1.351229,-0.966840,0.087032,-0.252734
933371680,4.041048,-1.780669,1.562319,-0.958936,0.084270,-0.260911
933391722,3.759519,-1.055621,1.822228,-0.963412,0.101370,-0.247598
933411763,4.332035,-3.477283,3.004244,-0.961877,0.106543,-0.270152
933431805,6.056992,-2.722169,3.749849,-0.955613,0.094124,-0.245868
933451847,4.081205,-3.912296,2.821143,-0.953437,0.088763,-0.267427
933471889,5.620200,-3.331130,2.068434,-0.961562,0.093969,-0.253916
933491933,4.808851,-0.841960,1.966520,-0.963840,0.099656,-0.241294
933511975,1.106748,0.845430,1.849586,-0.961782,0.120234,-0.227717
933532016,2.021680,-1.331911,3.047037,-0.960858,0.113388,-0.247366
933552058,3.807228,-2.355307,3.348590,-0.964544,0.102764,-0.253475
933572100,6.059863,-2.217305,2.906564,-0.958883,0.108825,-0.251902
933592141,0.351937,-1.193238,1.884627,-0.959904,0.106720,-0.248519
933612183,-1.995200,1.380043,1.623962,-0.964519,0.107686,-0.233504
933632225,-1.851677,0.005787,1.553166,-0.969715,0.105232,-0.236034
933652266,0.307451,-1.391247,1.428042,-0.962735,0.109539,-0.259100
933672308,-0.574715,-1.070675,1.497478,-0.958634,0.097491,-0.250356
933712394,-0.339385,-0.732068,-0.882351,-0.965069,0.102594,-0.234895
933732436,1.448426,-0.373076,-0.951137,-0.964075,0.113958,-0.244707
933752477,-1.016231,1.061607,-0.361903,-0.960780,0.115192,-0.229350
933772519,-0.425618,0.900331,0.496848,-0.964876,0.136324,-0.231582
933792561,0.444932,-2.146654,1.000855,-0.956009,0.127442,-0.265614
933812602,-0.752520,-1.778698,-0.351540,-0.949027,0.099983,-0.250378
933832644,-3.553670,1.016810,-1.349254,-0.960112,0.109616,-0.243283
933852686,-3.917286,0.788377,-1.919793,-0.965150,0.102570,-0.255398
933872727,-2.104698,1.461065,-2.573633,-0.959565,0.096588,-0.245350
933892769,-5.114533,1.881517,-3.126497,-0.966435,0.111181,-0.233597
933912811,-3.428764,0.773809,-2.536053,-0.957631,0.113772,-0.259241
933932853,-3.313027,1.369799,-2.930570,-0.955604,0.110128,-0.250487
933952896,-5.846280,0.155884,-3.083344,-0.959527,0.116196,-0.251846
933972939,-3.778745,1.369097,-2.314347,-0.965096,0.113722,-0.243905
933992980,-5.453335,1.360880,-1.841990,-0.958953,0.097704,-0.242529
934013022,-5.772508,1.101459,-2.009555,-0.962285,0.097056,-0.255163
934033063,-1.808794,1.705046,-2.253987,-0.957840,0.089218,-0.249757
934053105,-4.539578,0.994963,-2.329776,-0.963985,0.087765,-0.253780
934073147,-5.244588,2.606324,-2.646132,-0.965941,0.092294,-0.245324
934093189,-5.808409,1.354156,-2.670725,-0.963386,0.101590,-0.263638
934113231,-4.843582,0.865281,-2.443902,-0.960002,0.093660,-0.260075
934133273,-4.015282,0.887936,-2.193345,-0.962608,0.096827,-0.252706
934153315,-3.372025,1.772110,-0.815769,-0.962735,0.097064,-0.255354
934193400,-0.191671,-0.329226,0.760851,-0.956885,0.073386,-0.262888
934213442,2.440247,-0.557964,0.553763,-0.956678,0.083338,-0.271237
934233484,3.375813,1.174718,1.042843,-0.965365,0.098436,-0.258984
934253524,4.269784,0.211688,1.960944,-0.964471,0.090875,-0.253017
934273566,5.341643,-0.704399,1.867607,-0.959806,0.092829,-0.242017
934293608,2.086301,-1.383882,1.723702,-0.961535,0.100259,-0.252190
934313650,2.004875,0.425922,1.490999,-0.961785,0.111408,-0.253915
934333692,1.395500,-0.810952,1.443641,-0.958055,0.106002,-0.251112
934353734,0.135382,0.044792,0.867765,-0.958994,0.109584,-0.249820
934373776,0.867898,1.183005,0.382567,-0.962973,0.112238,-0.242563
934393819,-1.481936,1.663893,0.430227,-0.962584,0.105710,-0.247466
934413861,-1.688429,0.205603,0.389895,-0.963582,0.102142,-0.257181
934433903,0.021690,0.449471,0.853286,-0.955023,0.101533,-0.253623
934453945,-0.577995,0.488059,0.465826,-0.962293,0.095841,-0.251317
934473998,-1.870979,0.953593,0.619371,-0.961294,0.098835,-0.262277
934494027,2.021512,-0.062020,0.851388,-0.959862,0.100206,-0.259261
934514069,1.960431,0.174500,1.003906,-0.957482,0.107261,-0.250938
934534111,0.574824,-1.016783,1.131939,-0.952146,0.105265,-0.266925
934554153,-1.742711,0.090709,0.716734,-0.957537,0.101125,-0.260868
934574195,0.775762,1.014748,0.633291,-0.962404,0.112982,-0.252859
934594236,1.253891,0.312164,0.776365,-0.964479,0.108077,-0.250184
934614280,0.653249,0.617527,0.800000,-0.954493,0.106105,-0.256781
934634322,0.859335,0.220918,0.426605,-0.958111,0.109584,-0.248344
934654364,-0.137791,-1.244898,0.265001,-0.962221,0.101834,-0.257422
934674406,0.441218,0.159915,0.343072,-0.959969,0.098556,-0.260514
934694448,1.210513,1.557159,0.367798,-0.957684,0.109800,-0.251528
934714488,0.479540,0.808807,0.435384,-0.963450,0.103716,-0.242441
934734530,-0.282206,-0.244987,0.532898,-0.960990,0.102337,-0.264420
934754572,1.861697,-0.405533,0.782460,-0.957984,0.105313,-0.260850
934774614,1.686705,0.311908,1.019487,-0.958016,0.104580,-0.255099
934794656,3.003634,-0.168456,0.470461,-0.960289,0.095659,-0.266672
934814698,2.396986,0.106992,-0.068696,-0.960123,0.102980,-0.256302
934834740,1.470041,0.885853,-0.158174,-0.955964,0.109504,-0.256499
934854783,-0.697016,1.779006,-0.071904,-0.966489,0.110319,-0.236774
934874825,-1.284852,-0.152933,0.115320,-0.956743,0.106345,-0.262754
934894867,0.891695,1.557385,0.155035,-0.961947,0.108397,-0.248952
934914909,0.298169,1.114557,0.124194,-0.967425,0.115695,-0.243254
934934949,2.668041,0.388353,0.965865,-0.963233,0.112123,-0.263341
934954991,2.653316,0.724377,0.897988,-0.957549,0.109650,-0.249153
934975033,2.280160,-0.809990,0.606662,-0.953726,0.115272,-0.262008
934995075,2.647318,1.495897,0.572268,-0.957615,0.114388,-0.254330
935015117,2.630802,0.182573,0.630937,-0.958621,0.107754,-0.262632
935035159,0.312641,-0.129855,0.008053,-0.954615,0.099747,-0.263337
935055201,-0.765361,-0.732108,-0.859313,-0.955047,0.090614,-0.261475
935075244,-1.386242,0.658089,-1.404220,-0.964306,0.091644,-0.256033
935095286,-0.581306,0.451550,-1.032355,-0.962271,0.098747,-0.263662
935115330,0.803205,1.108124,-0.940738,-0.953746,0.098814,-0.257382
935135370,0.938422,0.657152,-0.492880,-0.961688,0.114455,-0.250315
935155410,2.814275,1.404170,0.670889,-0.958021,0.116598,-0.259111
935175452,2.324610,0.265763,1.338472,-0.963455,0.106553,-0.253419
935195494,2.581290,-0.421905,1.793478,-0.957735,0.099958,-0.266503
935215537,6.643005,-0.116325,1.761432,-0.956352,0.098594,-0.264358
935255620,2.015632,-0.404825,0.151192,-0.961676,0.085883,-0.273111
935275662,2.194053,0.978042,-0.645102,-0.958693,0.092044,-0.269135
935295705,2.194918,1.550827,-0.773433,-0.963250,0.096773,-0.257456
935315747,2.818939,1.337274,-0.964231,-0.953791,0.100833,-0.262243
935335789,0.629390,1.177241,-1.305557,-0.953903,0.099520,-0.252840
935355831,-1.996453,0.466570,-0.849075,-0.960579,0.105935,-0.272303
935375883,1.735880,0.626215,-0.113116,-0.952714,0.102243,-0.269623
935395914,0.450092,0.435181,-0.013897,-0.953944,0.100221,-0.254674
935415955,-0.211781,0.213737,-0.013916,-0.957471,0.101421,-0.259139
935435997,0.102021,1.260186,-0.384976,-0.957355,0.103915,-0.262273
935456039,-0.521797,1.863084,-0.147904,-0.963102,0.102573,-0.257998
935476081,-0.165002,-0.114025,-0.508788,-0.956256,0.102789,-0.269158
935496123,-0.270278,0.390191,-0.774061,-0.958576,0.101349,-0.278387
935516166,-0.116150,1.383223,-1.175545,-0.951367,0.108813,-0.265141
935536208,-1.082861,1.161532,-0.962473,-0.960051,0.098866,-0.270543
935556250,-1.981045,1.054363,-0.741643,-0.963077,0.100590,-0.256965
935576293,-0.690039,-0.869776,-0.646649,-0.959115,0.099709,-0.260970
935596335,0.808125,-0.152303,-0.387688,-0.961420,0.100736,-0.262855
935616375,1.712306,0.435105,0.091906,-0.960172,0.099708,-0.262814
935636417,0.426872,0.809026,0.237690,-0.952996,0.099259,-0.263023
935656459,-0.066322,1.221623,-0.042741,-0.959293,0.103635,-0.266045
935696542,-0.369870,0.267788,-0.561281,-0.962243,0.104000,-0.258367
935716584,-1.899319,-0.533978,-0.546597,-0.956542,0.098439,-0.269097
935736627,-0.964112,0.473461,-0.149974,-0.959181,0.098858,-0.263418
935756669,-0.447453,-0.564766,-0.281246,-0.955794,0.098681,-0.269906
935776711,0.107477,0.572416,0.153814,-0.959106,0.095796,-0.261547
935796753,0.898050,0.663880,0.320853,-0.959199,0.096077,-0.261098
935816795,1.140961,0.350768,0.388649,-0.953470,0.096065,-0.271093
935836836,-1.102834,-0.343943,0.236583,-0.963664,0.097880,-0.263222
935856878,-0.161052,-1.558010,0.325332,-0.956439,0.102537,-0.274352
935876919,1.192692,0.052514,0.821594,-0.955575,0.094999,-0.266747
935896961,0.729120,0.045007,0.692546,-0.955876,0.094956,-0.270215
935917003,1.224842,1.526288,0.664322,-0.959870,0.095382,-0.260099
935937045,1.169929,-0.550448,0.622885,-0.958349,0.097549,-0.270852
935957087,1.039464,-0.711190,0.980108,-0.957315,0.099384,-0.255369
935977130,0.796330,-0.734002,0.888941,-0.957818,0.094253,-0.259401
935997172,1.427646,-0.619469,0.904009,-0.958091,0.098757,-0.268497
936017214,0.659118,-0.535677,1.056645,-0.957439,0.102246,-0.264801
