Timestamp (us),Gyroscope X (deg/s),Gyroscope Y (deg/s),Gyroscope Z (deg/s),Accelerometer X (g),Accelerometer Y (g),Accelerometer Z (g)
917420010,-1.305049,-0.012466,-0.346175,-0.961711,0.027911,-0.259158
917440070,-1.441576,0.040955,-0.283840,-0.963878,0.031583,-0.258875
917460130,-0.365817,-0.012491,-0.196423,-0.968917,0.029556,-0.256956
917480190,-0.999775,-0.126498,-0.295884,-0.961998,0.020810,-0.248754
917500250,-0.601777,-0.073090,-0.147953,-0.965291,0.024782,-0.242756
917520310,0.355634,0.444318,0.213696,-0.975282,0.024259,-0.249983
917540370,-0.955622,0.490469,0.212717,-0.968321,0.013788,-0.250840
917560430,-0.327168,0.086408,-0.158989,-0.967292,0.015651,-0.253232
917580491,1.206160,0.291167,-0.100107,-0.965234,0.023289,-0.254000
917600551,1.726115,0.192540,0.069735,-0.965445,0.030441,-0.257135
917620610,0.501848,0.262217,0.380225,-0.959299,0.028781,-0.265252
917640670,0.588266,0.353993,0.622935,-0.958387,0.029890,-0.264176
917660734,1.160363,0.057475,0.701246,-0.963416,0.035846,-0.255315
917680791,0.660613,1.046373,0.887147,-0.967413,0.040388,-0.253150
917700851,2.108234,0.604813,0.864764,-0.969600,0.036581,-0.257363
917720911,2.243179,0.315441,0.681098,-0.962124,0.030566,-0.263664
917740971,0.694728,0.809814,0.521537,-0.965274,0.030755,-0.254958
917761031,1.173489,0.436893,0.425769,-0.971338,0.035773,-0.257358
917781091,0.773965,0.231135,0.148674,-0.970834,0.036262,-0.265001
917801151,-0.013928,-0.384689,-0.016426,-0.960985,0.029128,-0.257267
917821210,-0.564514,0.200243,-0.278618,-0.965379,0.029964,-0.253398
917841270,-0.228129,-0.096023,-0.136750,-0.965077,0.027165,-0.261253
917861331,-0.960316,-0.232570,-0.143619,-0.961513,0.023200,-0.266796
917881391,-1.278220,0.102475,0.034317,-0.961299,0.025075,-0.254557
917901451,0.070610,-0.430152,0.058976,-0.967457,0.029169,-0.257577
917921511,2.205757,-0.339742,0.088683,-0.966665,0.033240,-0.263921
917941571,2.460420,0.139633,0.320947,-0.960509,0.028127,-0.261701
917961631,0.658786,-0.247746,0.143524,-0.967760,0.026569,-0.255257
917981691,-0.479578,-0.263059,-0.095463,-0.962815,0.027299,-0.258152
918001751,-0.143227,-0.437753,0.023233,-0.964521,0.029182,-0.260561
918021811,1.168269,-0.331868,0.023826,-0.965786,0.029151,-0.262658
918041871,1.054821,-0.384790,0.124283,-0.964883,0.029267,-0.261019
918061930,1.695011,-0.050759,0.047825,-0.966811,0.029324,-0.258758
918081989,0.419505,-0.210372,-0.158807,-0.961017,0.033032,-0.263159
918102049,-0.073335,-0.103119,0.097837,-0.965174,0.033868,-0.268743
918122110,1.141147,-0.255042,0.351655,-0.963063,0.031503,-0.257960
918142170,1.158340,-0.170985,0.534171,-0.962307,0.028454,-0.250080
918162230,1.340255,0.079442,0.386735,-0.970690,0.028401,-0.251217
918182290,0.852241,-0.148341,0.415526,-0.968178,0.027936,-0.260285
918202350,-0.223179,-0.072016,0.358534,-0.968573,0.023384,-0.259838
918222410,0.826781,-0.209756,0.164450,-0.964364,0.031592,-0.253787
918242470,0.636685,0.238779,0.142538,-0.965303,0.036697,-0.259251
918262530,-0.422296,0.209005,0.222821,-0.960640,0.027422,-0.255688
918282590,-0.245760,-0.223913,0.412516,-0.968869,0.025323,-0.253967
918302650,1.592866,-0.117983,0.521650,-0.965505,0.033596,-0.259194
918322710,1.795649,0.916494,0.814055,-0.966911,0.030007,-0.256498
918342770,1.004810,0.109978,0.382715,-0.971091,0.022910,-0.266480
918362830,0.250969,-0.590443,-0.178864,-0.962856,0.024057,-0.270183
918382890,-0.925571,0.024950,-0.525726,-0.958451,0.029548,-0.253443
918402950,-1.257849,0.481797,-0.279346,-0.965943,0.039501,-0.256034
918423010,-0.826312,-0.066241,-0.496098,-0.967458,0.036789,-0.264810
918443070,-0.976643,0.230703,-0.327526,-0.962655,0.031075,-0.265858
918463130,-0.549872,0.200089,-0.339750,-0.959729,0.024159,-0.258895
918483190,-0.000745,-0.256020,-0.245542,-0.965653,0.021514,-0.246697
918503250,1.437735,-0.796733,-0.404762,-0.969611,0.031122,-0.261261
918523310,2.545198,-0.226790,-0.296401,-0.966510,0.028327,-0.248738
918543370,2.680426,-0.576884,-0.441810,-0.974769,0.018992,-0.234064
918603550,6.229505,0.347806,-0.963223,-0.965213,0.009735,-0.256383
918623611,4.288613,-0.235715,-0.544145,-0.957307,0.006250,-0.239911
918643671,6.759667,1.019160,0.111525,-0.962399,0.031903,-0.246327
918663731,6.791272,-0.338910,1.212106,-0.967825,0.045579,-0.239612
918683791,5.095061,-0.555745,2.412592,-0.956784,0.028915,-0.242968
918703851,5.188093,1.330977,3.031775,-0.971526,0.025039,-0.236431
918723911,5.037412,1.931790,3.115748,-0.966050,0.038092,-0.239099
918743971,6.005614,2.212537,3.066314,-0.970301,0.037540,-0.245658
918764031,4.442537,0.714301,2.523244,-0.971233,0.018822,-0.246404
918784091,3.996537,0.759146,2.131703,-0.968919,0.023068,-0.247835
918804151,5.721977,0.835015,2.364099,-0.960713,0.034629,-0.251096
918824211,5.106374,1.588030,2.437544,-0.953485,0.050255,-0.285620
918844271,2.530321,2.136420,2.433925,-0.954364,0.049006,-0.308329
918864331,-0.993516,3.148142,2.111806,-0.949438,0.038113,-0.289008
918884391,-3.146902,2.652400,1.077281,-0.958461,0.046831,-0.280402
918904451,-4.671947,3.061439,0.216499,-0.956528,0.053652,-0.276155
918924511,-6.472252,3.563451,0.029195,-0.956559,0.041737,-0.283569
918964631,-6.981831,3.586759,0.149047,-0.956944,0.022920,-0.284493
918984691,-5.810368,3.775602,-0.146274,-0.967702,0.014078,-0.278387
919004753,-4.416009,1.728864,-0.667042,-0.974893,-0.001739,-0.234768
919024813,-4.111163,0.966958,-1.323913,-0.974607,-0.019737,-0.240339
919044872,-0.566641,0.682316,-2.108978,-0.985728,-0.026910,-0.232994
919064933,4.218829,0.183962,-3.036678,-0.993105,-0.025952,-0.233416
919084993,6.266649,0.233700,-4.118654,-0.992307,-0.026298,-0.198678
919105053,3.629181,-2.103556,-6.004456,-0.992276,-0.003762,-0.180008
919125113,7.783450,-3.165442,-7.449696,-0.994212,0.021867,-0.196043
919145173,11.321670,-4.718767,-7.896142,-0.989686,0.020080,-0.192348
919165233,8.020599,-6.256080,-9.174583,-0.974099,0.022073,-0.220663
919185293,4.530147,-4.848524,-9.269421,-0.949648,0.031790,-0.228345
919205353,3.961612,-2.733141,-8.513994,-0.957127,0.025076,-0.219534
919225413,3.510891,-1.293259,-7.300862,-0.962292,0.006957,-0.228679
919245473,10.135100,0.096211,-6.858754,-0.972143,-0.019247,-0.208971
919265533,14.167755,-0.836354,-8.287745,-0.969705,-0.020464,-0.190572
919285593,13.084043,-1.559936,-9.051429,-0.949570,-0.004701,-0.217846
919305653,15.881063,0.205338,-7.897601,-0.946289,0.008949,-0.218719
919325713,18.344763,2.822344,-6.666053,-0.980493,-0.007297,-0.202968
919345773,15.453676,-1.103464,-8.499332,-0.985201,0.016213,-0.230615
919365833,10.620268,1.313148,-9.641382,-0.969299,0.062929,-0.187217
919385893,3.943498,3.113549,-11.287545,-1.032785,0.075409,-0.107347
919405953,-24.936344,-0.487507,-18.423203,-1.013922,0.178115,-0.137161
919426013,-52.924435,-4.936461,-20.833532,-0.878321,0.311969,-0.169456
919446073,-68.549568,-3.791453,-12.159437,-0.910359,0.272986,-0.158178
919466133,-81.130341,-4.791863,-3.665744,-0.924179,-0.043786,-0.266612
919486193,-80.738815,-5.950382,1.408823,-0.941753,-0.382198,-0.458116
919506253,-38.417439,-2.424893,4.761789,-0.953689,-0.534736,-0.449425
919526314,0.351821,2.416829,7.967474,-0.912226,-0.415941,-0.459868
919546374,25.427542,9.081985,11.554999,-0.904365,-0.207103,-0.413543
919566434,33.094376,16.669237,13.113258,-0.919904,-0.047079,-0.346526
919586494,24.204235,20.686829,13.170133,-0.935483,0.067252,-0.258657
919606554,-4.535279,24.164482,12.889686,-0.942548,0.153989,-0.221679
919626614,-23.677410,23.576221,14.686381,-0.942744,0.122770,-0.174188
919646674,-39.395222,24.098129,17.189631,-0.943729,0.043487,-0.230168
919666732,-42.175701,24.508175,19.657978,-0.947876,-0.024576,-0.263738
919686792,-40.000103,25.913612,22.785883,-0.943480,-0.068874,-0.282795
919706852,-27.951960,26.587221,26.752432,-0.902487,-0.092497,-0.285582
919726913,-18.255299,28.845427,28.591499,-0.904320,-0.111245,-0.288242
919746973,-14.496769,30.773962,28.271038,-0.919546,-0.132166,-0.295026
919767032,-17.917233,34.548935,26.393641,-0.921814,-0.092349,-0.332873
919787092,-25.196352,33.205513,26.019569,-0.964527,-0.017501,-0.324871
919807153,-33.533596,26.923662,26.607018,-0.971024,0.003469,-0.314207
919827213,-31.565466,24.772650,27.071016,-0.991601,-0.019137,-0.296535
919847273,-26.886686,23.835617,23.912487,-1.088223,-0.009313,-0.181889
919867333,-35.036613,17.100952,19.628864,-1.129644,0.008692,-0.096000
919887393,-38.988312,12.480268,13.205568,-1.123281,-0.061742,-0.010923
919907453,-51.267746,6.751147,5.954195,-1.201569,-0.250465,0.032623
919927512,-64.291016,-2.850276,-2.643500,-1.347124,-0.431109,-0.013535
919947573,-60.420437,-29.574856,-19.317261,-1.369172,-0.517354,-0.155137
919967633,-41.885422,-56.821091,-41.699009,-1.343057,-0.536852,-0.119628
919987693,-3.196275,-67.779388,-55.547649,-1.263963,-0.543286,0.070201
920007753,42.986038,-77.943062,-72.719620,-1.273978,-0.428806,0.392371
920027813,8.611137,-109.152733,-99.038284,-1.245813,-0.079240,0.483817
920047873,-100.883018,-132.016937,-113.678253,-1.088250,0.230996,0.046714
920067933,-91.711380,-78.600891,-119.248726,-1.242778,0.244157,-0.115658
920087993,-47.358521,-67.956734,-126.689972,-1.437356,0.235541,-0.563390
920108053,51.174175,-79.623833,-118.580078,-1.468916,-0.060742,-0.657122
920128113,98.108566,-91.716423,-97.266724,-1.354626,-0.161918,-0.349057
920148173,119.277229,-91.348511,-83.026527,-1.271790,0.054078,-0.267723
920168233,94.421875,-88.536682,-78.226219,-1.208004,0.199781,-0.246728
920188293,52.634922,-85.044868,-78.028259,-1.075572,0.207435,-0.307321
920208353,12.227539,-78.540833,-76.816505,-0.920506,0.053095,-0.387218
920228413,1.953152,-63.780933,-76.626762,-0.741715,-0.027903,-0.407809
920248473,6.888315,-41.324547,-66.174126,-0.615835,0.045553,-0.385212
920268533,20.336426,-21.057415,-47.982033,-0.549462,0.092297,-0.349991
920288593,35.873604,-1.224382,-26.633562,-0.492226,0.184704,-0.278582
920308654,65.228516,12.368903,-5.497104,-0.449426,0.243641,-0.206447
920328714,89.709290,24.571152,14.850331,-0.452467,0.289039,-0.215311
920348774,90.294525,27.109568,33.479759,-0.482249,0.305099,-0.188503
920368834,85.556526,25.001524,44.230049,-0.517715,0.181408,-0.054753
920388894,137.850266,23.311872,52.295990,-0.678326,-0.120291,0.226174
920408954,188.567291,22.451103,69.599190,-1.208719,-0.904608,0.798979
920429014,85.626389,31.364693,25.639557,-1.890804,-1.744225,1.119433
920449074,84.249496,55.395294,-17.924913,-1.591459,-0.678319,0.703729
920469134,117.319351,40.703785,-17.374037,-1.042544,-0.198661,0.415261
920489193,17.705460,74.036278,-35.000328,-0.894838,-0.134590,0.375335
920509254,-107.267807,87.658112,-56.566807,-1.044000,0.309155,-0.078319
920529313,-271.177917,6.119919,-59.784134,-1.780752,0.914143,-0.483141
920549374,-33.917389,-89.627312,-17.063190,-1.168273,0.123879,-0.291909
920569434,145.217926,2.684213,14.411128,-0.657760,-0.924505,0.051760
920589494,-143.092590,57.838036,-8.662260,-0.738805,0.013124,-0.628740
920609554,-36.749588,26.308855,4.541409,-0.625300,0.816939,-1.054940
920629630,-5.500674,67.741707,39.183632,-0.966044,0.000045,-0.233571
920649676,-9.530566,50.217461,40.803986,-1.154051,-0.091810,-0.301530
920669736,7.551630,46.991199,48.703606,-0.950176,0.093966,-0.447145
920689795,17.929981,55.123547,56.061218,-0.855924,0.208615,-0.320311
920709855,-19.501369,56.729744,53.723930,-0.953304,-0.062333,-0.264244
920729916,-45.241734,59.931717,46.864395,-0.974133,-0.136833,-0.320968
920749976,-33.803089,61.033215,48.496742,-0.897123,-0.140994,-0.318647
920770036,-25.334606,55.590374,49.972393,-1.002595,-0.177831,-0.237087
920790095,-41.895123,40.114563,44.659847,-1.049796,-0.229873,-0.141195
920810156,-74.787125,31.472914,36.605358,-0.936316,-0.216910,-0.198537
920830215,-79.527107,30.333956,30.082844,-0.961355,-0.234964,-0.192702
920850276,-63.178101,21.350399,21.100485,-1.042712,-0.341821,-0.145793
920870336,-58.982159,19.239117,13.262974,-0.987566,-0.312066,-0.220498
920890397,-33.922783,21.485601,9.766191,-0.994758,-0.284144,-0.161514
920910456,-18.950878,25.177807,8.243664,-0.927374,-0.255793,-0.037671
920930516,-15.184767,28.818071,5.335100,-0.927251,-0.155310,0.047908
920950576,-16.024330,27.855133,3.090766,-0.940747,-0.208621,0.085374
920970636,-47.577782,17.848066,-3.534489,-0.893583,-0.268629,-0.013608
920990695,-51.373653,3.910204,-11.955683,-0.961167,-0.288543,-0.187973
921010756,-36.085243,-15.441700,-20.884993,-0.972769,-0.383958,-0.222892
921030816,-2.326252,-23.490971,-30.335018,-1.022716,-0.439917,0.120695
921050876,-21.469555,-33.947647,-47.818733,-1.294806,-0.189912,0.324249
921070936,-74.352005,-66.175194,-61.325844,-1.564596,0.320372,0.331321
921090996,-136.028076,-102.556984,-62.180988,-1.561830,0.367608,0.110455
921111056,-158.625366,-127.473320,-68.127541,-1.434334,0.140127,-0.010138
921131116,-129.088669,-121.166786,-67.461357,-1.265281,-0.001657,-0.301738
921151176,-94.507050,-90.442154,-68.657448,-1.139572,0.017623,-0.573129
921171236,-54.831383,-60.511326,-73.443802,-1.219303,0.022577,-0.702117
921191296,4.878666,-47.553761,-71.006523,-1.323959,0.047866,-0.569349
921211356,50.223446,-49.093819,-49.481346,-1.175081,0.097281,-0.434904
921231416,75.427147,-42.211266,-31.483467,-0.905430,0.125090,-0.425479
921251476,90.917114,-25.867926,-19.713554,-0.781573,0.198457,-0.384438
921271536,77.017273,-13.283065,-11.125363,-0.746429,0.227438,-0.344785
921291596,45.831112,-0.693609,-3.589909,-0.709778,0.264440,-0.367273
921311655,17.528608,6.251015,5.810684,-0.579633,0.293535,-0.419552
921331715,18.094780,15.694259,16.016352,-0.479590,0.289323,-0.411193
921351775,64.244713,16.697277,26.833279,-0.568127,0.246485,-0.331610
921371835,122.666740,31.545334,37.465427,-0.747430,0.078563,-0.221556
921391895,171.237289,40.863571,41.939438,-0.966119,-0.226434,-0.101615
921411955,174.529938,50.364937,26.468620,-1.068099,-0.521092,0.030232
921432015,26.439487,78.598999,4.707227,-1.055377,-0.285941,0.146548
921452075,-104.371368,71.776520,2.836076,-0.719960,0.347848,-0.080615
921472135,-82.863487,50.411972,33.277416,-0.976812,0.514957,-0.092064
921492196,78.383209,29.861708,56.597595,-2.041150,-0.340176,-0.035068
921512255,209.286194,29.450033,18.953133,-1.448418,-0.860472,-0.095622
921532315,52.851261,42.563271,-7.670680,-0.844352,-0.038680,-0.002812
921552375,-64.123772,14.955131,4.420610,-0.829751,0.855313,0.068484
921572435,-58.885296,20.421297,30.529306,-0.805005,0.696987,-0.230877
921592496,-1.461134,36.470337,47.205620,-0.958644,-0.048539,-0.365895
921612556,11.406119,36.444252,32.400749,-1.068331,-0.454581,-0.281646
921632616,11.829279,36.482063,10.484125,-1.025632,-0.384609,-0.133626
921652676,1.758729,22.797642,-1.069935,-1.013816,-0.197610,-0.053690
921672736,9.752114,10.859515,-4.168457,-1.033815,-0.103287,-0.073561
921692795,21.142220,2.543763,-8.212713,-1.025985,-0.157130,-0.113149
921712856,11.939479,-1.958313,-16.773722,-0.965909,-0.165846,-0.135836
921732915,6.151902,-3.323695,-22.804022,-0.937308,-0.121458,-0.161689
921752976,4.180537,-5.871306,-26.678194,-0.969049,-0.057046,-0.232339
921773035,1.018409,-4.786652,-28.208666,-0.988072,0.011911,-0.227550
921793096,-10.924530,-7.352929,-28.947685,-0.976854,0.054648,-0.198286
921813156,-26.919561,-5.342205,-26.963419,-0.981457,0.081692,-0.255908
921833216,-25.217880,6.834307,-21.090885,-1.017250,0.091533,-0.236835
921853276,-23.142683,0.279603,-15.266634,-1.031300,0.041118,-0.148335
921873336,-19.425631,-7.986729,-9.661848,-1.017841,0.022482,-0.177549
921893396,-14.030225,-4.262495,-5.889170,-0.959301,-0.033226,-0.252639
921913456,-22.892120,1.055806,-5.500544,-0.924432,-0.167355,-0.323305
921933516,-10.563867,-2.034221,-8.043974,-0.925702,-0.381959,-0.348850
921953576,17.619766,1.679036,-11.167160,-0.942579,-0.516858,-0.240516
921973636,33.609306,-3.598541,-15.482931,-0.981161,-0.381922,-0.157704
921993696,28.423599,-12.929745,-21.034813,-1.011509,-0.176278,-0.082802
922013756,1.026272,-14.437144,-26.621983,-0.956882,-0.072926,-0.146521
922033816,-43.244907,-12.021050,-28.436634,-0.899510,0.013241,-0.277358
922053876,-74.740509,-9.594097,-20.475815,-0.902710,-0.173638,-0.333432
922073936,-78.371994,-3.683553,-13.225701,-1.021309,-0.409458,-0.338502
922093996,-53.298958,-4.568058,-19.450859,-1.034519,-0.426581,-0.327255
922114056,-20.156120,-3.038703,-22.622921,-1.064962,-0.418402,-0.273758
922134116,-9.176786,-4.543618,-26.908508,-0.965689,-0.356546,-0.094456
922154176,-22.142397,-6.043764,-33.309418,-1.060373,-0.313372,-0.120512
922174236,-33.769226,-10.586484,-43.368050,-1.113503,-0.270272,-0.110883
922194296,-45.026596,-27.739258,-40.267006,-1.064690,-0.306088,-0.123036
922214356,-48.438484,-31.799953,-50.775150,-0.961635,-0.418228,-0.182736
922234416,-43.566799,-27.811790,-69.877220,-0.969846,-0.371200,-0.132114
922254476,-45.337727,-35.381130,-88.092255,-1.083013,-0.226576,-0.086258
922274536,-59.094086,-51.412212,-71.164040,-0.812322,-0.055881,-0.150495
922294596,-62.520370,-48.864735,-55.745041,-0.758340,-0.315410,-0.223078
922314678,-48.052624,-45.802055,-41.118050,-0.597249,-0.256998,-0.172006
922334718,-27.550959,-32.894402,-37.740009,-0.908457,-0.304533,-0.049656
922354778,-33.305595,-34.115211,-34.320343,-0.862877,-0.150253,-0.040467
922374838,-29.372349,-24.212494,-22.155920,-0.885686,-0.113569,-0.030369
922394898,-25.051712,-21.643185,-8.948335,-0.885893,-0.215027,-0.071476
922414958,-15.312294,-19.165625,-1.295064,-0.922690,-0.257786,-0.092426
922435018,-7.552758,-11.990577,5.834556,-0.916669,-0.305795,-0.128314
922455079,2.687219,-7.581760,10.604145,-0.905544,-0.370964,-0.119400
922475139,12.221544,-1.971075,12.444153,-0.929310,-0.371433,-0.109886
922495199,18.175360,4.272470,14.459019,-0.961566,-0.361393,-0.102979
922515259,19.306200,9.314390,15.432310,-0.993063,-0.372116,-0.107589
922535319,19.761074,13.963943,17.496264,-0.960488,-0.367149,-0.121956
922555379,19.598169,17.339083,17.436180,-0.915577,-0.368578,-0.132045
922575439,25.587816,22.651127,20.908714,-0.908355,-0.387300,-0.139474
922595499,31.436232,28.064899,22.423811,-0.925969,-0.396850,-0.115665
922615559,34.753864,27.849062,24.887833,-0.941973,-0.394270,-0.120438
922635619,36.452072,29.777861,27.455660,-0.914364,-0.401328,-0.140245
922655679,39.069241,29.169397,27.771460,-0.908759,-0.369118,-0.129088
922675739,42.826401,29.746866,28.300415,-0.920975,-0.286646,-0.135696
922695799,34.317680,31.959564,30.209686,-0.948557,-0.239440,-0.140366
922715859,29.401203,32.392841,35.620441,-0.979733,-0.272726,-0.145826
922735919,27.995298,29.128889,37.374184,-0.994591,-0.274794,-0.102051
922755979,27.779097,27.912495,37.295792,-0.951806,-0.257036,-0.102328
922776039,21.627384,27.562090,32.821712,-0.956411,-0.234260,-0.101506
922796099,5.331133,25.301296,38.181160,-0.939574,-0.191952,-0.145112
922816159,4.548761,24.065321,45.593361,-0.954649,-0.222990,-0.141525
922836219,4.611485,20.957788,46.271214,-0.992131,-0.241605,-0.160203
922856279,-0.036118,20.061918,45.950989,-0.986501,-0.195412,-0.138489
922876339,-8.005939,18.301464,49.030476,-0.924129,-0.237262,-0.136544
922896399,-9.831587,18.645042,52.464077,-0.905093,-0.327717,-0.182114
922916459,-10.802302,18.591644,52.223347,-0.936638,-0.375064,-0.264403
922936519,1.761178,17.313381,53.887466,-0.891994,-0.351102,-0.264150
922956579,15.953230,19.318159,58.566437,-0.882112,-0.247120,-0.206673
922976639,22.776350,27.090492,64.195755,-0.893173,-0.131425,-0.251077
922996699,27.703983,27.879234,67.401733,-0.970186,-0.091672,-0.277517
923016759,33.497726,20.226803,63.211395,-0.929035,-0.078881,-0.409346
923036819,47.889885,21.214106,59.019276,-0.879337,-0.104568,-0.531137
923056878,52.609196,20.857416,47.551373,-1.009518,-0.175851,-0.580162
923076938,62.375309,16.811787,23.583857,-1.136218,-0.074068,-0.307309
923096998,56.131401,-3.502291,9.199839,-1.045739,0.111960,-0.005010
923117058,28.933968,-9.266460,0.625965,-1.081819,0.302540,0.067504
923137118,-25.889189,-19.853218,-4.507938,-1.063936,0.308539,-0.084600
923157178,-63.136700,-22.990435,-6.759058,-0.956432,0.126556,-0.215244
923177238,-76.989799,-23.566175,-5.165208,-0.934594,-0.069315,-0.321647
923197298,-68.664703,-21.613173,-0.894305,-0.915166,-0.211507,-0.332884
923217358,-44.867157,-15.545152,0.750015,-0.976688,-0.321740,-0.235439
923237418,-18.241327,-14.375485,-4.521802,-0.980613,-0.228398,-0.166840
923257478,-6.228985,-14.525441,-7.877070,-1.007780,-0.113262,-0.108049
923297598,-2.470199,-34.851368,-19.177336,-1.056655,-0.136117,0.024380
923317658,8.886222,-50.696228,-27.706543,-1.055357,-0.192822,0.085627
923337718,24.158091,-65.719093,-35.160400,-1.109067,-0.304454,0.217869
923357778,40.580879,-81.454796,-44.835327,-1.170081,-0.523742,0.378354
923377838,54.182598,-100.487038,-60.149025,-1.311450,-0.787570,0.479954
923397898,43.125458,-123.386559,-88.207718,-1.585666,-0.850310,0.403337
923417958,5.697028,-140.458450,-112.600334,-1.907437,-0.381964,0.335996
923438018,-37.038658,-175.114685,-119.635216,-1.985621,0.074628,0.280402
923458078,-74.015503,-178.693787,-119.121574,-1.771639,0.201795,0.028119
923478138,-89.903610,-157.602203,-123.283859,-1.595755,0.007337,-0.099096
923498198,-66.130020,-136.868652,-124.122803,-1.390435,-0.334770,-0.099028
923518258,13.580515,-113.365723,-123.874977,-1.413391,-0.524172,-0.022345
923538318,75.990570,-110.087303,-137.440460,-1.567065,-0.624933,0.110869
923558379,93.676804,-131.718781,-148.684387,-1.491603,-0.649889,0.247115
923578438,93.046432,-145.267075,-137.020462,-1.336924,-0.763752,0.135914
923598499,147.990997,-152.097351,-122.972473,-1.292879,-0.755550,-0.043904
923618559,198.290527,-170.255295,-125.749496,-1.131846,-0.532641,-0.058449
923638619,202.223251,-171.079651,-129.586060,-0.788991,-0.302108,0.012413
923658679,172.933105,-152.579895,-117.094223,-0.444841,-0.211842,0.056083
923678739,155.411102,-136.194687,-99.970276,-0.242327,-0.030434,0.029997
923698799,135.451233,-119.836311,-88.047882,-0.208712,0.007636,0.028835
923718859,102.547623,-96.217102,-77.892006,-0.157867,0.131839,-0.005476
923738919,85.727859,-76.940414,-65.767540,-0.188115,0.176289,-0.040745
923758979,79.993294,-56.756596,-50.718330,-0.121871,0.226184,-0.026947
923779039,61.098923,-33.822495,-35.432636,-0.055346,0.301351,0.043744
923799099,23.937456,-5.001081,-24.953579,0.020251,0.327198,0.163860
923819159,-12.626463,26.702755,-16.957720,-0.000479,0.214901,0.268933
923839219,-39.531544,50.013290,-7.674733,-0.107255,0.161618,0.415974
923859279,-66.462090,66.193604,1.733232,-0.224559,0.127789,0.559685
923879339,-84.729912,74.355881,13.398617,-0.354473,0.081313,0.710289
923899399,-86.560432,76.470268,26.049849,-0.477243,-0.058156,0.787851
923919459,-90.139488,74.150749,40.690174,-0.590761,-0.199774,0.809050
923939519,-95.108971,68.117241,53.335426,-0.686992,-0.316531,0.800426
923959579,-92.923325,64.788918,63.624165,-0.694146,-0.406870,0.727164
923979639,-81.635345,59.205673,70.366211,-0.691880,-0.481386,0.697386
923999699,-66.838730,56.193642,75.317955,-0.637453,-0.444461,0.644180
924019759,-52.220810,54.028210,78.257446,-0.579895,-0.358016,0.575702
924039820,-42.754539,57.819332,75.834747,-0.609287,-0.338335,0.476899
924059880,-51.027596,65.122993,76.852112,-0.631239,-0.322964,0.379855
924079939,-40.286751,65.813332,81.221649,-0.601651,-0.267045,0.384611
924100000,-48.577400,78.598671,88.802750,-0.583336,-0.201517,0.362579
924120060,-84.166359,88.252007,97.971558,-0.623728,-0.192021,0.247270
924140120,-88.560081,80.595215,105.896858,-0.689972,-0.242513,0.154483
924160180,-64.243523,91.374458,106.837669,-0.843746,-0.274383,0.143410
924180240,-66.246353,104.466667,107.253395,-1.035647,-0.336646,0.118058
924200300,-63.884872,107.592072,108.088455,-1.198332,-0.370490,0.100610
924220375,-66.492348,105.040054,105.417854,-1.242827,-0.360879,0.094821
924240421,-53.159554,100.455788,107.546799,-1.135427,-0.296662,0.071215
924260482,-22.889442,95.755646,105.534714,-1.191108,-0.256762,0.108253
924280541,0.228633,95.101120,96.640007,-1.344393,-0.369219,0.131142
924300602,20.631727,99.075211,86.909790,-1.283975,-0.360052,0.084396
924320662,36.469215,102.469963,82.002190,-1.173910,-0.116536,0.106821
924340722,46.417046,101.927979,79.638481,-1.098879,0.029198,0.138423
924360782,43.972851,108.225471,77.393417,-1.214170,0.091700,0.179891
924380841,19.589712,96.227333,72.241722,-1.369671,0.059699,0.261629
924400902,-13.940393,83.124107,64.373169,-1.387730,0.003184,0.358948
924420962,-46.018814,77.851746,54.014793,-1.289232,-0.092130,0.394727
924441022,-73.845062,90.808525,44.348785,-1.320329,-0.267238,0.256371
924461082,-79.501167,87.354004,35.769104,-1.606493,-0.457817,0.200894
924481142,-68.823975,45.257721,16.811142,-1.680621,-0.640004,0.272795
924501205,-89.194595,8.680974,-7.193425,-0.917072,-0.600627,0.128188
924521262,-86.579651,21.115465,-10.751769,-0.761296,-0.355944,-0.071883
924541322,-57.135784,10.631970,-5.964664,-0.876457,-0.159498,-0.113824
924561382,-30.171057,-1.735350,-1.008427,-0.974480,-0.118061,-0.241503
924581442,42.908340,9.321815,3.733533,-0.930439,-0.046542,-0.384504
924601502,79.765663,24.618635,10.797911,-0.955071,0.055518,-0.211455
924621562,66.625961,31.965416,13.087984,-1.004097,0.208356,-0.069853
924641622,47.797310,28.029884,17.054205,-1.062050,0.256862,-0.056170
924661682,15.655051,16.187180,18.236864,-1.005373,0.254459,-0.146175
924681742,-9.280078,16.294973,20.811760,-0.939152,0.166110,-0.259523
924701802,-4.416016,19.940275,23.294804,-0.917261,-0.015206,-0.296834
924721862,6.199324,24.218588,21.346039,-0.983179,-0.123515,-0.272267
924741922,6.300010,19.904913,16.821014,-0.995392,-0.070008,-0.185061
924761982,8.967011,13.837849,13.819441,-1.037801,-0.047297,-0.096811
924782042,5.114332,4.182791,9.739951,-1.062372,-0.095540,-0.046682
924802102,-5.874080,-3.842956,2.350651,-1.098205,-0.154076,0.000304
924822162,-16.597315,-15.058873,-3.920764,-1.056113,-0.183286,0.006445
924842222,-21.616409,-23.520414,-8.188633,-1.082856,-0.196950,0.012098
924862282,-17.626003,-27.829472,-16.407040,-1.076744,-0.217738,-0.041752
924882342,-25.274906,-25.267605,-23.951147,-1.035932,-0.247232,-0.050885
924902402,-27.413116,-33.409420,-30.675062,-0.994070,-0.322169,0.055472
924922461,-24.839214,-46.632835,-38.062798,-0.947642,-0.427250,0.128873
924942521,-17.575573,-57.787193,-47.222031,-0.893207,-0.556232,0.038855
924962581,21.567606,-59.069435,-61.443039,-0.933502,-0.670524,-0.068051
924982641,80.643860,-58.006886,-80.248093,-1.092159,-0.707195,-0.059971
925002701,124.713409,-69.096977,-97.364082,-1.347417,-0.697890,-0.027555
925022761,123.473236,-77.790413,-105.696976,-1.609953,-0.584503,-0.043941
925042821,106.869003,-115.868042,-117.910446,-1.700762,-0.324675,0.121069
925062881,133.686722,-134.136002,-119.903786,-1.376817,0.015429,-0.061128
925082941,89.742798,-71.157967,-116.204468,-1.076010,0.145585,-0.219805
925103001,46.609806,-22.501682,-106.060570,-0.826825,0.284548,-0.538840
925123061,15.194882,18.369757,-78.503639,-0.635968,0.315825,-0.492279
925143121,-13.119212,30.435993,-48.034706,-0.639412,0.247348,-0.427929
925163181,35.132877,30.110922,-20.294827,-0.549719,0.144936,-0.547157
925183242,118.478882,39.976940,2.804506,-0.544510,-0.051956,-0.507906
925203302,170.657211,80.064926,19.378595,-0.561802,-0.126506,-0.389246
925223362,196.962021,121.051086,41.409191,-0.638812,-0.112584,-0.224750
925243422,226.302261,124.293007,63.509384,-0.793926,-0.029694,-0.134428
925263482,285.103363,100.735641,83.220100,-0.966461,0.017813,-0.158905
925283542,371.899780,93.088860,85.762917,-1.191618,-0.003843,-0.192563
925303602,420.703278,88.229599,68.350632,-1.326285,-0.038295,-0.011573
925323662,364.948730,73.185310,39.977295,-1.450751,-0.010156,0.706848
925343722,234.685715,74.180733,11.359330,-1.332454,0.106245,0.824601
925363782,95.230217,118.379288,-8.677402,-1.271137,0.351297,0.154638
925383842,-22.264923,77.968063,-22.362204,-1.649948,0.803209,-0.077711
925403902,-59.044407,-16.497837,-43.357925,-1.121912,0.907732,0.017163
925423962,-32.411781,23.350229,-20.375362,-0.361742,0.266756,0.042697
925444022,-57.712051,45.985939,5.544765,-0.604868,-0.216877,-0.449069
925464082,30.338425,58.671692,16.703426,-1.547415,-0.729329,-0.085982
925484142,54.722488,24.438873,23.282701,-1.171709,-0.554096,-0.250450
925504202,95.345833,28.423120,33.695419,-0.741670,-0.441290,-0.150726
925524262,112.607162,40.678322,43.314575,-0.799533,-0.528691,-0.328141
925544322,128.507797,52.471916,44.185055,-0.875764,-0.471077,-0.250729
925564382,129.145264,56.925594,47.009655,-0.919031,-0.221767,-0.150078
925584442,124.809715,51.050087,52.826294,-0.984159,-0.052752,-0.013413
925604502,109.304176,41.755886,54.490753,-0.980300,-0.089667,0.005025
925624562,90.081459,36.729126,50.415714,-0.962178,-0.182114,-0.073512
925644622,84.553032,32.458858,47.156517,-1.000880,-0.279466,-0.138726
925664682,83.274071,24.937235,42.410831,-1.018231,-0.334520,-0.208248
925684742,92.712479,22.621532,38.936825,-0.932575,-0.325500,-0.267488
925704802,96.912735,20.079773,38.523720,-0.887320,-0.245278,-0.374918
925724863,109.553368,16.531639,38.340694,-0.919607,-0.232467,-0.437881
925744923,120.226044,11.821587,35.171684,-0.964285,-0.229189,-0.450371
925764983,115.327019,3.929704,24.468491,-1.016994,-0.150915,-0.491305
925785043,101.480377,-2.994970,22.358990,-0.992876,-0.030380,-0.464968
925805103,100.556633,-5.888060,20.394827,-0.981676,0.011309,-0.371231
925825163,91.204475,-13.660828,17.285482,-0.979267,0.019118,-0.291272
925845223,104.038048,-18.445217,18.307661,-0.991420,-0.107854,-0.124605
925865283,135.156662,-34.556648,16.063559,-1.010733,-0.313264,0.123487
925885343,156.396042,-64.700073,3.163510,-1.020584,-0.438127,0.210400
925905402,167.823929,-86.731071,-17.148989,-1.014021,-0.373312,0.060681
925925463,168.168396,-81.207718,-34.048389,-1.170630,-0.173003,-0.234106
925945542,154.157425,-50.349861,-45.008587,-1.288369,0.103763,-0.468015
925965584,136.713089,-18.769840,-44.043369,-1.198260,0.164481,-0.485378
925985644,113.148346,3.229350,-48.283813,-0.986304,-0.076795,-0.484156
926005704,102.441460,24.087942,-47.334938,-0.920424,-0.291162,-0.610425
926025764,119.186996,33.363510,-40.812191,-0.843807,-0.308493,-0.695587
926045824,149.143860,47.951782,-16.796282,-0.753392,-0.283649,-0.694006
926065885,189.542770,52.928104,10.802938,-0.717768,-0.330601,-0.692114
926085945,241.803574,45.204113,25.751472,-0.798107,-0.187225,-0.632326
926106005,290.843201,38.092411,35.596870,-0.939690,0.131229,-0.532692
926126065,334.162598,35.464233,37.567310,-1.095025,0.374255,-0.296907
926146125,347.171021,10.228174,21.856590,-1.083415,0.424981,-0.107427
926166185,335.070862,23.147408,15.059203,-0.929776,0.438858,-0.092292
926186245,315.108002,49.509293,17.376114,-0.868317,0.524301,-0.111457
926206305,222.929276,72.401390,18.535048,-0.912905,0.651784,-0.038811
926226372,111.814262,68.888374,17.986708,-0.950618,0.814285,0.330854
926246425,63.268650,25.039701,15.466850,-1.115963,0.690992,0.737242
926266485,40.679493,47.492359,13.432432,-1.232770,0.114112,-0.015448
926286545,-110.425087,25.905052,1.006163,-1.617107,-0.176146,-0.103697
926306605,-98.912682,-25.140909,3.142773,-0.841465,-0.097168,-0.325521
926326665,-37.543812,11.875849,27.504480,-0.678335,-0.577006,-0.632659
926346725,51.339386,17.765083,26.095642,-0.937135,-0.834794,-0.416912
926366785,90.500084,28.496660,22.460899,-0.910096,-0.264553,-0.398684
926386845,119.565521,34.600307,27.149319,-0.968302,0.058324,-0.222399
926406905,101.821548,36.922424,31.849998,-1.031715,0.199005,-0.206558
926426965,66.994675,35.215469,33.600510,-1.002188,0.213959,-0.172310
926447025,34.810383,32.270081,32.947247,-0.977960,0.126940,-0.150733
926467085,17.531958,32.039047,35.035084,-0.955084,0.047094,-0.155571
926487145,15.851269,34.886349,39.611626,-0.903896,-0.033645,-0.153416
926507205,17.673847,40.383282,43.380909,-0.953477,-0.117808,-0.105755
926527265,23.094826,39.267700,48.209671,-0.889215,-0.115916,-0.178344
926547325,31.070852,41.099789,49.588524,-0.978091,-0.191068,-0.247068
926567385,33.726749,34.241726,43.288948,-1.011087,-0.234658,-0.357800
926587445,39.547401,28.399191,29.986025,-1.098951,-0.211348,-0.307903
926607505,40.933014,9.878516,16.641792,-1.116322,-0.203167,-0.134788
926627565,50.405014,1.270228,4.502385,-1.031471,-0.065332,-0.106803
926647624,41.785965,1.939913,-2.927227,-1.043912,0.101043,-0.126614
926667684,32.279022,-3.511840,-8.182381,-1.003877,0.141667,-0.115879
926687744,5.994399,-1.463533,-14.385204,-0.950732,0.181229,-0.165324
926707804,-36.986759,-4.298265,-18.266182,-0.908561,0.275292,-0.323302
926727864,-61.773857,-1.649868,-15.013388,-0.908885,0.271033,-0.350496
926747924,-65.449677,2.665281,-7.362439,-0.940456,0.129784,-0.293397
926767984,-70.197746,2.103206,-1.722368,-0.920674,0.033240,-0.332576
926788044,-57.090424,3.159922,3.664443,-0.933390,-0.018844,-0.412037
926808104,-24.567461,5.516978,6.274208,-0.967534,-0.077201,-0.388500
926828165,9.822968,6.752395,7.486825,-0.942778,-0.075784,-0.348026
926848225,34.578308,7.515327,9.705646,-0.932767,-0.067636,-0.304759
926868284,43.636028,8.759772,10.319591,-0.949323,-0.065679,-0.246796
926888344,52.150524,10.912102,9.054686,-0.979165,-0.015396,-0.220264
926908405,50.589813,7.353417,5.239535,-1.036958,-0.018278,-0.163620
926928464,37.843822,3.797395,-2.515227,-1.018052,-0.032183,-0.105620
926948524,33.055592,-0.624728,-11.833652,-1.027391,-0.038667,-0.090278
926968584,2.781095,-9.035023,-21.213091,-1.019954,-0.037680,-0.097892
926988644,-29.187920,-12.870725,-28.459087,-0.969463,-0.060318,-0.164917
927008704,-41.054325,-7.577747,-32.747551,-0.939611,-0.052908,-0.210072
927028764,-49.834473,-9.685816,-35.214390,-0.925649,0.051090,-0.226664
927048824,-53.043407,-10.419660,-31.176044,-0.910312,0.144299,-0.224593
927068884,-58.849060,-13.915926,-22.536953,-0.932831,0.159555,-0.146457
927088944,-65.711914,-17.418736,-13.642361,-0.978529,0.039158,-0.130734
927109005,-39.288658,-19.003227,-7.373634,-0.953702,-0.195702,-0.275029
927129065,8.081039,-15.570700,-3.877639,-0.938663,-0.355567,-0.443687
927149125,16.286764,-9.992225,-3.006156,-0.914939,-0.355494,-0.602830
927169185,26.317383,-2.063913,-1.467059,-0.867692,-0.225473,-0.529906
927189245,35.307262,9.625180,2.147014,-0.909349,-0.047170,-0.452375
927209305,14.452039,17.882998,8.894162,-0.971527,0.148231,-0.371459
927229365,-13.481309,22.284504,19.798567,-0.952986,0.251122,-0.267550
927249425,-28.579128,25.203867,29.849520,-0.979685,0.215921,-0.213950
927269485,-29.587772,23.928722,36.746037,-0.976427,0.111284,-0.195705
927289545,-19.209013,23.220102,40.963028,-0.971985,-0.045218,-0.154213
927309605,-2.521126,22.521469,40.979935,-0.940538,-0.139073,-0.158105
927329665,2.547323,24.764538,38.929470,-0.937624,-0.173901,-0.178893
927349725,3.768794,25.178637,37.489799,-0.917228,-0.145588,-0.175036
927369785,0.851330,29.447279,35.514183,-0.941932,-0.135645,-0.165540
927389845,-5.647681,32.443085,34.686176,-0.921975,-0.167284,-0.165839
927409905,-13.115024,37.802513,33.466507,-0.922547,-0.180654,-0.144502
927429965,-19.273994,38.857861,31.877520,-0.936641,-0.137055,-0.089303
927450025,-40.573921,37.987679,26.778248,-0.934455,-0.076686,-0.134236
927470085,-70.819847,33.609894,18.859272,-0.968722,-0.140124,-0.204604
927490145,-79.556046,22.605228,12.268291,-0.942918,-0.394519,-0.396438
927510205,-64.553352,13.529810,5.922738,-1.071920,-0.517907,-0.296393
927530265,-24.600773,-14.485494,2.308514,-1.342914,-0.417217,-0.001407
927550325,-5.150064,-47.252666,-14.482757,-1.641958,-0.187519,0.299468
927570385,-17.421761,-75.386139,-38.086815,-1.600400,-0.083344,0.398025
927590445,-65.183868,-91.825844,-60.599491,-1.468566,-0.143891,0.336157
927610505,-113.286507,-99.218414,-82.780678,-1.239765,-0.265961,0.014520
927630565,-121.549332,-91.829872,-96.892372,-1.098004,-0.235737,-0.308533
927650625,-54.710407,-70.635857,-101.123825,-1.246917,-0.020542,-0.155920
927670686,-13.434762,-58.684975,-100.029007,-1.350020,0.304871,-0.174294
927690750,7.577712,-55.865204,-90.404312,-1.355825,0.181241,-0.389017
927710807,51.793209,-65.445694,-86.894234,-1.352014,-0.092186,-0.410162
927730867,126.145355,-75.516380,-67.243309,-1.245401,-0.097117,-0.403481
927750927,181.768478,-83.315582,-57.651287,-1.157120,-0.057601,-0.380004
927770987,159.110199,-81.148361,-51.836926,-1.091776,0.153321,-0.322400
927791047,102.098412,-72.182892,-50.967541,-1.033220,0.247077,-0.304100
927811107,57.080818,-65.704910,-48.752472,-0.926770,0.214523,-0.376995
927831167,32.902195,-48.955513,-48.697258,-0.806154,0.162016,-0.413984
927851227,20.983032,-26.719309,-44.133583,-0.707435,0.134893,-0.406205
927871287,18.097361,-5.332659,-34.141224,-0.630973,0.189733,-0.325625
927891347,21.526503,12.522310,-24.895149,-0.554639,0.254828,-0.243419
927911408,42.292923,22.987982,-15.950129,-0.504754,0.279316,-0.156328
927931468,59.525520,25.207397,-3.759741,-0.499278,0.289144,-0.084208
927951528,46.131592,28.088720,12.827135,-0.590973,0.237503,-0.050933
927971592,27.123419,15.523414,25.459917,-0.723426,0.129481,0.016080
927991648,54.300163,-13.120965,29.829947,-0.880376,-0.044723,0.164010
928011708,148.153046,-37.006111,26.978420,-1.084431,-0.384587,0.380138
928031768,199.029709,-26.154184,15.425685,-1.164385,-0.915788,0.455251
928051828,115.385223,6.660027,-3.167074,-1.189403,-1.008802,0.440668
928071888,42.826595,17.127045,-12.694418,-1.079067,-0.401487,0.333665
928091948,27.896255,22.766930,-9.260033,-0.965523,-0.148228,0.270291
928112008,-14.190921,33.469872,-19.747120,-0.948314,-0.168179,0.159395
928132068,-51.009247,54.455925,-33.366562,-0.865231,-0.059042,0.022271
928152128,-76.789848,80.815788,-20.353811,-1.234258,0.299828,-0.251196
928172188,-97.303070,85.127525,-13.844340,-2.036281,0.354502,0.086351
928192248,52.083405,-1.018268,-20.386909,-1.438159,-0.366143,0.452475
928212308,100.944290,25.801899,-14.839895,-0.828638,-0.925963,0.035207
928232368,-79.293884,25.796410,-10.249008,-0.572205,-0.141761,-0.623018
928252428,-102.323669,28.040276,-4.240228,-0.601397,0.767188,-0.578425
928272488,-10.638763,39.885723,18.366335,-0.789224,0.597135,-0.244016
928292548,-32.772007,38.813232,29.983099,-0.914966,0.010310,-0.350571
928312608,-31.571434,43.177490,24.258015,-0.936697,-0.097967,-0.460487
928332668,-44.795158,51.460796,27.148746,-1.002814,-0.020080,-0.407398
928352728,-40.396095,39.787140,29.042969,-0.961884,-0.012782,-0.444671
928372788,-32.187271,35.396542,34.916435,-0.965513,-0.121824,-0.454110
928392847,-21.634222,40.474052,39.627548,-0.942675,-0.109277,-0.448036
928412907,-2.068841,41.381989,44.326569,-0.938093,-0.056963,-0.412078
928432967,6.984338,40.883190,47.071377,-0.973684,0.043313,-0.331693
928453027,-14.995293,40.630238,45.598221,-0.936421,0.102712,-0.294778
928473087,-40.957363,37.086102,43.613056,-0.931906,0.085685,-0.305254
928493147,-43.949535,30.505852,44.317932,-0.938450,-0.007068,-0.313558
928513207,-33.498257,22.303944,46.297070,-0.958145,-0.121629,-0.278800
928533267,-24.105553,20.770950,42.699646,-0.963463,-0.151812,-0.274539
928553327,-23.772854,22.246445,36.800831,-1.013762,-0.196159,-0.202171
928573387,-26.548346,18.026531,32.833000,-1.050270,-0.295218,-0.098068
928593447,-7.159379,23.438931,26.700020,-1.015755,-0.348623,-0.037880
928613507,11.323834,34.583603,17.483400,-1.022004,-0.273620,0.097048
928633567,-9.883966,27.976534,10.301676,-0.992619,-0.309255,0.039239
928653627,-33.099674,26.939434,5.010430,-0.998338,-0.330047,0.028505
928673687,-42.697063,9.373794,-5.098554,-0.990211,-0.329581,-0.082549
928693747,-37.706299,-10.881283,-15.185445,-0.966517,-0.420442,-0.114176
928713807,-31.754953,-26.039932,-23.794292,-0.953238,-0.448512,-0.106942
928733867,-15.330427,-26.495655,-39.612648,-1.190813,-0.293602,-0.028330
928753928,8.253199,-40.469040,-48.608398,-1.296127,0.001836,0.222662
928773987,16.235359,-68.699730,-55.583145,-1.454966,0.119802,0.613853
928794047,-74.553864,-103.902054,-64.040741,-1.433309,0.232926,0.366134
928814107,-120.123451,-117.034996,-67.417671,-1.455808,0.303447,-0.016488
928834167,-140.252014,-107.940750,-66.716858,-1.270476,0.451004,-0.306310
928854227,-120.643539,-70.150764,-62.873554,-1.093231,0.535817,-0.558277
928874287,-108.740913,-36.752975,-59.658699,-1.049575,0.258025,-0.740212
928894348,-40.160870,-28.927505,-56.055824,-1.162161,-0.051314,-0.587785
928914408,49.707073,-37.508972,-43.461052,-1.177226,-0.018951,-0.409291
928934468,77.675446,-43.876793,-25.139946,-0.968836,0.180358,-0.360953
928954528,64.149536,-29.185253,-16.088633,-0.817645,0.241082,-0.345433
928974588,38.970783,-17.472347,-5.362460,-0.863409,0.255550,-0.331592
928994648,24.503901,-11.740122,1.740185,-0.854033,0.229729,-0.356240
929014708,20.973637,-3.273889,6.482880,-0.793884,0.194437,-0.341522
929034768,21.193197,0.030886,11.944387,-0.695183,0.194952,-0.301259
929054828,34.345226,1.223978,20.279896,-0.694491,0.148922,-0.249941
929074888,75.933899,-3.582765,29.515263,-0.806827,0.076100,-0.186566
929094948,143.117218,-2.010812,30.900894,-0.884998,-0.029314,-0.105938
929115008,169.694305,20.157515,23.465450,-0.993422,-0.023644,-0.098462
929135068,127.011063,29.131681,11.579276,-0.981030,-0.109649,-0.047424
929155128,44.670963,35.145836,7.391192,-0.928072,-0.343872,-0.042757
929175188,-48.030773,39.562489,7.238240,-0.956734,-0.363144,0.098535
929195248,-68.316956,30.813416,10.310390,-0.929213,-0.225692,0.247120
929215308,-46.307724,34.884754,6.461376,-0.872036,-0.023467,0.085478
929235368,-16.049669,48.312134,9.525330,-0.843698,0.232096,-0.281046
929255428,-11.551111,61.056740,24.420128,-1.099246,0.338098,-0.408982
929275489,12.410221,38.882648,28.702389,-1.385308,0.148875,-0.183394
929295549,60.324535,15.682423,21.467548,-1.160999,-0.214919,0.102638
929315609,44.671455,22.829815,16.354702,-1.035401,-0.165767,-0.024222
929335669,-7.887693,27.237932,19.526558,-0.910834,0.132607,-0.163196
929355728,-43.972027,28.692610,23.889444,-0.806327,0.107174,-0.379961
929375789,-24.448835,27.230724,26.255098,-0.940876,-0.102908,-0.515236
929395849,32.900658,19.990597,25.331930,-1.016789,-0.162389,-0.413454
929415915,44.411171,17.046803,20.259130,-1.035599,-0.073912,-0.299392
929435970,20.951345,13.255118,16.936249,-0.997772,0.060561,-0.216785
929456030,1.058416,13.849829,17.404425,-0.911842,0.114701,-0.322048
929476090,3.594166,19.056858,20.869375,-0.904097,0.063329,-0.375682
929496150,17.079832,21.661148,21.873375,-0.939383,0.012218,-0.336378
929516210,11.653304,22.003899,21.223223,-0.972535,0.053656,-0.267698
929536270,-6.464945,19.242498,23.601034,-0.959296,0.115961,-0.235789
929556330,-20.035648,15.575852,26.495245,-0.956383,0.104430,-0.231557
929576390,-24.076712,8.297861,24.561092,-0.976218,0.029091,-0.303169
929596451,-13.488317,10.251936,20.271063,-1.003417,-0.031599,-0.394277
929616511,9.120668,11.818383,21.185249,-0.990062,-0.079818,-0.280848
929636570,21.844643,11.167248,18.174030,-0.985801,-0.040696,-0.156828
929656631,25.167189,9.216465,16.801126,-1.027122,-0.008333,-0.088479
929676691,12.335505,6.429251,12.581753,-1.083847,-0.060909,-0.095720
929696750,0.452815,1.927318,3.623331,-1.075192,-0.149360,-0.188384
929716810,-0.925445,3.336346,-4.893599,-1.007832,-0.137396,-0.234235
929736870,-6.513783,3.040571,-8.688058,-0.964274,-0.012994,-0.222681
929756930,-10.580376,2.091656,-8.839223,-0.947773,0.135232,-0.221267
929776990,-9.818072,-0.746920,-6.851200,-0.920931,0.236863,-0.275652
929797050,-13.146684,-2.686368,-4.691016,-0.918251,0.270812,-0.308272
929817110,-21.167583,-3.809800,-2.252784,-0.907131,0.255559,-0.323743
929837171,-25.228979,-1.928935,1.506316,-0.907572,0.214082,-0.354608
929857231,-20.003519,-0.097288,5.361850,-0.921173,0.139203,-0.337739
929877291,-13.634141,-0.308130,7.274125,-0.940270,0.081259,-0.329854
929897351,1.690411,1.328849,7.818352,-0.949666,0.067183,-0.344006
929917411,21.742952,2.103613,7.847988,-0.974356,0.043211,-0.232241
929937471,19.349411,0.138590,5.897601,-0.981439,0.031902,-0.186705
929957542,9.204559,-1.452198,3.345341,-0.993223,0.070063,-0.205028
929977602,2.322481,-1.752598,0.555882,-0.980362,0.094631,-0.242325
929997662,-0.271027,0.182115,-1.432642,-0.975403,0.126476,-0.245710
930017722,-3.980250,-1.103399,-2.394759,-0.952891,0.125861,-0.197756
930037782,-17.094297,-1.157104,-1.702050,-0.945367,0.121081,-0.210989
930057842,-23.902245,-3.012214,0.160732,-0.964049,0.094913,-0.240513
930077902,-21.067909,-3.473617,1.594146,-0.961481,0.048357,-0.292447
930097962,-6.634321,-2.442057,3.109984,-0.954941,0.005376,-0.318154
930118021,9.243789,-2.660160,3.652821,-0.953486,-0.003234,-0.295349
930138081,15.366293,-2.235175,4.400105,-0.971204,0.015719,-0.270255
930158141,13.495401,-3.511750,4.301901,-0.960099,0.050093,-0.277472
930178201,15.624394,-1.726431,4.205453,-0.967415,0.089431,-0.294611
930198261,19.506010,-1.241459,4.230252,-0.972525,0.124418,-0.256747
930218321,12.880679,-2.439366,4.412638,-0.955880,0.136291,-0.221422
930238381,2.109458,-2.563742,4.576810,-0.961262,0.137016,-0.204647
930258441,-1.690051,-2.144913,4.228724,-0.974923,0.098054,-0.233086
930278501,1.331046,-1.275536,2.752929,-0.977938,0.063278,-0.253362
930298561,11.337012,-3.820610,1.963679,-0.964496,0.026047,-0.252684
930318621,17.508482,-3.732940,1.552806,-0.969511,-0.009968,-0.290766
930338681,24.868629,-5.070643,-0.231759,-0.989629,-0.051473,-0.278012
930358741,39.906124,-4.982801,-5.320405,-1.009257,-0.035742,-0.288505
930378801,57.611286,-7.867260,-13.075475,-1.047966,-0.034780,-0.248009
930398861,71.858498,-11.298328,-24.251415,-1.070703,0.030032,-0.189254
930418921,67.787109,-27.086462,-37.093025,-1.093590,0.149962,-0.092984
930438981,39.442593,-36.562981,-46.955856,-1.050770,0.218763,-0.092123
930459041,-2.663716,-38.030880,-48.174721,-1.046328,0.283808,-0.096859
930479101,-59.850105,-44.653877,-52.393372,-1.014954,0.367329,-0.165881
930499161,-113.581207,-39.448475,-56.054810,-0.904187,0.478143,-0.185702
930519221,-119.369484,-31.272387,-49.091618,-0.927321,0.430399,-0.147120
930539281,-101.908310,-23.760437,-39.310249,-1.068770,0.267854,-0.080503
930559341,-114.594337,-24.279711,-33.049725,-1.070565,0.304638,-0.062018
930579401,-143.788681,-37.467781,-21.911800,-1.003638,0.485454,-0.089025
930599461,-175.676422,-44.441265,-12.764485,-0.983751,0.537801,-0.160165
930619521,-212.641800,-48.070385,-20.314419,-0.978583,0.493718,-0.248858
930639581,-250.786896,-46.278278,-36.995686,-0.918767,0.400140,-0.332598
930659641,-275.189423,-36.385132,-46.112270,-0.868856,0.305054,-0.408274
930679701,-280.651672,-29.586487,-49.102890,-0.826039,0.166759,-0.517182
930699762,-276.990662,-13.020514,-44.711018,-0.741015,-0.051568,-0.599908
930719822,-284.392670,5.789393,-35.371429,-0.723770,-0.272772,-0.586500
930739882,-293.201813,6.946825,-26.680656,-0.734259,-0.405355,-0.617264
930759942,-267.911621,-0.337760,-13.815361,-0.733548,-0.412736,-0.668849
930780002,-200.134079,12.530825,0.308922,-0.689623,-0.433821,-0.671486
930800062,-135.337753,53.189716,6.827581,-0.675566,-0.379667,-0.678965
930820122,-65.926369,65.078194,15.189788,-1.021250,-0.396972,-0.554279
930840182,54.852547,40.101910,24.636484,-2.014060,-0.767202,0.010510
930860242,142.095901,37.449718,-0.832083,-1.429759,-1.584334,0.017452
930880302,102.841179,17.283390,8.688457,-0.796564,-0.531213,0.114013
930900362,95.292496,-20.922510,10.933110,-0.868412,1.057576,-0.170324
930920422,47.976616,19.771866,-5.814363,-0.889776,1.590320,-0.241117
930940482,-113.691429,34.953011,-23.857517,-0.915294,0.589083,-0.039563
930960542,-227.240005,28.139647,-40.940041,-1.011725,-0.038704,-0.415735
930980602,-208.164352,22.015059,-46.049667,-1.023633,-0.258113,-0.639340
931000662,-142.108536,16.047626,-41.050526,-0.897344,-0.366193,-0.644987
931020722,-115.829948,5.821473,-34.133430,-0.923434,-0.340027,-0.536984
931040782,-107.124382,-10.744013,-33.089596,-0.944414,-0.229277,-0.542986
931060842,-91.801994,-16.115576,-32.398094,-0.896099,-0.174401,-0.514108
931080902,-66.617706,-21.237709,-27.486345,-0.940964,-0.144111,-0.340649
931100962,-63.204151,-27.457336,-27.447109,-1.001792,-0.086031,-0.261706
931121022,-56.549412,-31.303478,-26.153755,-0.977721,-0.082663,-0.257909
931141082,-61.575371,-29.090569,-26.691078,-0.986572,-0.125575,-0.161702
931161168,-75.379379,-29.766031,-28.588177,-0.987414,-0.123978,-0.140555
931181204,-84.222481,-24.764021,-30.096716,-0.994897,-0.134135,-0.197225
931201264,-90.248047,-28.270855,-32.102455,-0.938251,-0.122312,-0.235405
931221324,-115.570274,-30.016596,-29.053726,-0.939062,-0.149798,-0.250714
931241384,-126.275589,-30.466543,-28.340706,-0.944955,-0.171973,-0.295696
931261444,-114.083328,-31.449718,-24.181017,-0.933385,-0.174445,-0.296495
931281504,-107.802094,-28.561375,-20.126328,-0.975818,-0.177298,-0.246858
931301564,-109.549881,-27.368225,-17.435013,-0.972600,-0.099951,-0.200649
931321624,-109.158272,-25.925917,-15.080275,-0.963150,-0.019573,-0.203552
931341684,-109.545982,-26.104258,-10.327363,-0.949208,-0.046636,-0.215060
931361744,-112.023102,-29.598671,-6.617800,-0.986387,-0.089922,-0.249367
931381804,-113.320251,-33.682842,-4.527832,-0.952208,-0.091694,-0.295781
931401864,-114.459526,-30.562057,-3.059881,-0.945245,-0.097165,-0.307186
931421930,-115.351624,-27.195419,-3.614966,-0.959532,-0.091166,-0.290013
931441984,-117.847237,-23.621555,-6.759550,-0.948821,-0.050449,-0.285441
931462044,-129.277298,-16.460875,-11.941608,-0.955836,-0.002584,-0.267010
931482104,-157.670563,-9.458322,-19.391361,-1.049808,0.096299,-0.152558
931502164,-199.575958,-21.269033,-31.736626,-1.134999,0.249397,-0.063524
931522224,-236.817932,-49.157581,-43.261703,-1.090286,0.344081,-0.078318
931542284,-263.428925,-67.878326,-46.725750,-1.026607,0.346496,-0.128466
931562344,-280.187256,-77.579208,-43.705132,-1.035815,0.299470,-0.147366
931582404,-285.006592,-82.710815,-35.286133,-1.002611,0.184318,-0.209486
931602464,-287.772125,-71.571663,-25.360687,-0.931103,0.009980,-0.335745
931622524,-298.054840,-52.680283,-20.524521,-0.923564,-0.103613,-0.435763
931642584,-303.525818,-35.188316,-27.665285,-0.925111,-0.261581,-0.525822
931662645,-281.396271,-4.409204,-39.852386,-0.861597,-0.347936,-0.516768
931682704,-236.426498,-11.996275,-16.722553,-0.754945,-0.244638,-0.339289
931702765,-148.839127,-43.879662,16.457945,-0.843030,-0.109477,-0.210846
931722825,-80.214989,-37.873116,31.725872,-0.888496,-0.229739,-0.187942
931742885,-75.661995,0.860466,27.142447,-0.850951,-0.389358,-0.306663
931762945,-87.438553,31.812216,23.916224,-0.817666,-0.363244,-0.389057
931783005,-52.755470,23.308363,27.772017,-0.845039,-0.258125,-0.415081
931803065,-2.360939,22.461023,31.771526,-0.881143,-0.263200,-0.374276
931823125,43.249638,23.191574,33.601654,-0.907975,-0.245394,-0.288485
931843184,70.683716,20.333281,35.144787,-0.955296,-0.177182,-0.185293
931863244,72.817574,13.052750,30.086685,-1.014086,-0.077698,-0.083476
931883304,50.128719,30.188229,23.471003,-0.988334,0.134881,-0.192848
931903364,23.542282,70.349167,19.103537,-1.013087,0.400725,-0.184767
931923424,-27.543770,72.280113,16.694155,-1.139628,0.496237,0.022750
931943484,-23.155027,24.090094,10.388437,-1.968700,0.195954,0.713047
931963543,4.033687,32.705006,-15.440741,-1.362967,-1.002929,0.438963
931983603,-68.593643,20.234816,-19.726797,-0.829279,-0.634694,-0.092963
932003664,-111.275314,1.692180,-30.842354,-0.758096,0.249831,-0.118359
932023724,-83.339516,9.833939,-16.619783,-0.733862,0.343538,-0.468883
932043784,4.062431,-2.532114,8.541369,-1.016312,-0.577532,-0.419972
932083904,19.747000,1.011099,-4.123648,-0.866246,-0.096503,-0.390761
932103964,33.361084,7.212776,3.866426,-0.951173,0.093518,-0.260870
932124024,23.164572,2.831782,1.169345,-1.002373,0.027568,-0.244649
932144084,-2.618826,5.264816,0.089341,-0.930656,0.019865,-0.276836
932164144,-4.487544,10.001073,6.156995,-0.951650,0.063973,-0.226230
932184204,-2.412606,11.877172,12.127645,-0.942773,0.068628,-0.179905
932204264,-11.083207,11.175270,15.867599,-0.945095,0.071651,-0.184974
932224324,-21.350233,12.800408,19.695400,-0.925157,0.050298,-0.186738
932244384,-35.830627,13.635798,23.152222,-0.918992,-0.010388,-0.198207
932264444,-34.319534,10.962491,27.585747,-0.972987,-0.106048,-0.218901
932284504,-11.972252,7.583448,29.818565,-1.032009,-0.178840,-0.291413
932304564,12.453842,4.831895,27.850405,-0.969820,-0.208987,-0.355324
932324624,38.118320,7.783515,26.829828,-0.976693,-0.257043,-0.322192
932344685,63.514778,7.574094,20.050667,-1.107608,-0.321942,-0.175977
932364744,75.430466,-0.234472,8.957071,-1.083531,-0.278272,-0.083569
932384804,65.504044,-0.218651,1.261453,-1.064228,-0.115517,-0.046774
932404864,43.233940,0.151575,-3.464479,-1.026746,0.065977,-0.121047
932424924,18.228745,-1.152215,-6.189835,-0.952975,0.225790,-0.155532
932444984,-7.385438,-2.410064,-5.753317,-0.902941,0.266013,-0.233643
932465044,-22.460659,1.297900,-2.777380,-0.948184,0.138084,-0.272777
932485105,-8.133732,1.163033,0.472659,-0.975323,-0.003643,-0.272462
932505165,8.914197,-0.593567,3.140577,-0.933641,-0.058864,-0.333200
932525225,20.495750,1.897858,7.427758,-0.924804,-0.013611,-0.330815
932545285,33.112354,3.512677,10.905540,-0.964132,0.035847,-0.288956
932565345,31.705755,0.915388,11.712540,-0.947565,0.105098,-0.288794
932585405,26.637342,1.664411,12.513144,-0.926674,0.178988,-0.259149
932605465,20.549437,4.975189,13.112683,-0.939825,0.216861,-0.230929
932625525,11.966924,5.640345,13.212751,-0.957496,0.199068,-0.237331
932645585,0.688637,5.612146,12.200905,-0.974297,0.152860,-0.235379
932665645,-5.136903,6.801770,9.617121,-0.984361,0.082556,-0.226122
932685705,-8.222367,5.265021,5.478242,-0.991477,0.045781,-0.233202
932705765,-4.519466,2.960594,2.539647,-0.975495,0.020426,-0.264367
932725825,1.113819,2.650375,0.969587,-0.980115,0.002293,-0.226327
932745885,-0.965177,2.184545,-0.256368,-0.965604,0.062104,-0.243272
932765945,-0.321071,2.217445,0.879714,-0.956269,0.087956,-0.252976
932786005,0.592921,2.720243,1.478144,-0.969062,0.099018,-0.252072
932806065,-0.145514,0.112540,1.241314,-0.970052,0.091714,-0.262123
932826125,-1.962021,-0.707876,1.171848,-0.958069,0.060179,-0.255195
932846185,0.421503,0.320038,2.263478,-0.937826,0.065845,-0.280643
932866245,7.649216,5.837471,6.003913,-0.945242,0.047420,-0.263704
932886320,12.565208,7.297795,7.158136,-0.982891,0.043619,-0.238023
932906366,10.392176,5.742875,5.082351,-0.989303,0.070449,-0.235832
932926427,6.411829,2.258487,3.275146,-0.962421,0.059501,-0.244570
932946487,4.577617,2.273351,2.822689,-0.967468,0.043087,-0.240928
932966547,3.443834,1.677911,1.601939,-0.967753,0.046966,-0.281638
932986607,1.297850,0.935083,2.122748,-0.941887,0.060543,-0.277839
933006667,-0.701981,2.261269,3.208347,-0.961096,0.078935,-0.263562
933026727,-3.583092,0.972835,1.185384,-0.966186,0.097127,-0.278293
933046787,-6.337222,1.032437,0.217018,-0.940431,0.109136,-0.304011
933066847,-9.207818,2.556153,1.105887,-0.934167,0.113005,-0.295049
933086907,-11.857590,2.058416,2.294676,-0.934474,0.121755,-0.295760
933106967,-10.623907,2.257000,2.890367,-0.957192,0.128210,-0.286551
933127027,-10.839787,0.622746,2.912102,-0.953962,0.115692,-0.290845
933147087,-11.887351,1.230333,2.502874,-0.960895,0.068159,-0.278087
933167147,-8.174926,1.696084,0.845220,-0.970380,0.027827,-0.305022
933187207,-4.940282,3.243556,0.036065,-0.967995,0.019919,-0.268952
933207267,-3.007735,2.702274,-0.273381,-0.968385,0.039242,-0.275315
933227327,2.599530,2.389297,0.146070,-0.961469,0.050417,-0.261031
933247387,2.112047,1.158594,0.390790,-0.968717,0.061961,-0.256741
933267447,1.932236,1.241164,-0.072360,-0.973314,0.049914,-0.263178
933287507,1.361220,-1.019003,-1.165514,-0.969858,0.068687,-0.272964
933307567,1.093603,-0.196539,-0.608284,-0.951972,0.065713,-0.278537
933327627,1.535836,0.717018,0.017147,-0.952117,0.059067,-0.292050
933347687,3.936544,0.489721,0.738302,-0.958338,0.050053,-0.298007
933367747,8.695392,-0.858745,0.338924,-0.964749,0.050126,-0.277498
933387807,11.204100,-2.425042,0.635469,-0.960375,0.049544,-0.277645
933407867,9.349397,-2.525437,-0.327114,-0.955076,0.073666,-0.269521
933427927,7.410568,-2.713314,0.235752,-0.956991,0.089563,-0.283737
933468047,5.625372,-3.201061,-0.574185,-0.950358,0.080181,-0.289798
933488107,8.942018,-1.688338,-0.027520,-0.953348,0.085638,-0.287189
933508167,15.366228,-2.960686,-0.102385,-0.967382,0.051786,-0.277635
933528227,12.622704,-2.681858,-1.574441,-0.964770,0.043303,-0.281098
933548287,6.956582,-3.646809,-2.340611,-0.957579,0.073492,-0.293895
933568346,6.067450,-3.655204,-2.818617,-0.948593,0.111217,-0.293732
933588406,4.596896,-2.733054,-2.111257,-0.944373,0.095474,-0.299233
933608466,0.911148,-1.111933,-1.945361,-0.952187,0.084034,-0.284699
933628526,-2.564675,-1.672639,-1.783882,-0.956131,0.091312,-0.273129
933648586,-3.822386,-1.563809,-1.008210,-0.953007,0.055512,-0.268261
933668646,-4.196725,-0.735566,-1.219598,-0.962584,0.035028,-0.273932
933688706,-5.605179,-0.536929,-1.052222,-0.955291,0.065579,-0.272462
933708766,-4.080343,-0.026558,-0.361431,-0.963139,0.049220,-0.257473
933728826,-4.449998,-0.627622,-0.637857,-0.957871,0.050528,-0.268195
933748886,-3.387753,-0.779423,-0.359505,-0.961240,0.066910,-0.267156
933768946,-4.888504,-0.238997,-0.329168,-0.964541,0.063454,-0.267746
933789006,-4.738400,-1.014724,-0.443179,-0.948140,0.057757,-0.287458
933809066,-2.381446,0.635401,0.174637,-0.944681,0.081738,-0.292160
933829126,-4.230344,2.667840,0.990045,-0.953879,0.060602,-0.269725
933849187,-3.718709,3.275740,0.975278,-0.965468,0.064790,-0.279413
933869246,-1.380086,3.601050,0.727785,-0.981589,0.078850,-0.251855
933889306,-4.727903,0.617862,-1.186702,-0.975119,0.079093,-0.251006
933909367,-6.692209,0.267915,-1.629190,-0.958439,0.063899,-0.266084
933929426,-4.240544,-1.284061,-1.705511,-0.955235,0.052935,-0.279771
933949486,-5.063792,0.038514,-1.905602,-0.965762,0.062837,-0.262287
933969547,-11.690579,-1.877775,-3.291421,-0.956807,0.092814,-0.280706
933989607,-12.510098,-1.207789,-3.009750,-0.953452,0.080023,-0.275358
934009667,-11.847266,-1.352552,-3.031897,-0.954767,0.062273,-0.287670
934029726,-11.799877,-0.212340,-3.050538,-0.948701,0.083378,-0.289031
934049786,-9.224300,-0.637398,-2.346045,-0.955443,0.065201,-0.278001
934069847,-9.384516,-1.723996,-2.181493,-0.955970,0.037054,-0.280024
934089907,-7.294491,-0.478388,-2.276152,-0.954982,0.059151,-0.269613
934109967,-6.028418,0.586916,-1.629653,-0.968124,0.057076,-0.254192
934130027,-6.078760,-0.652802,-1.892726,-0.966905,0.043658,-0.258572
934150087,-4.635593,-0.858020,-1.633660,-0.957272,0.058296,-0.253155
934170147,-2.231684,-1.259308,-0.561511,-0.970110,0.046336,-0.253367
934190207,-1.902630,-1.753070,-0.358092,-0.963107,0.033673,-0.263819
934210267,-0.757667,-0.712165,-0.388520,-0.957615,0.053473,-0.262067
934230327,0.335086,-0.567620,-0.156980,-0.963662,0.071104,-0.253975
934250387,0.042225,-0.148466,0.226250,-0.960073,0.058043,-0.257893
934270447,-1.143787,-0.899448,0.683202,-0.953728,0.056423,-0.268646
934290507,0.378724,0.195466,1.044817,-0.966511,0.056946,-0.265181
934310567,2.098000,-0.999181,0.861303,-0.958336,0.064232,-0.267726
934330627,2.348043,-1.052855,0.713887,-0.951147,0.078270,-0.265949
934350687,0.913473,-0.093249,1.199733,-0.956465,0.082388,-0.272146
934370747,-2.368187,0.089658,0.831321,-0.968354,0.068925,-0.264688
934410867,0.747458,0.171332,0.560678,-0.962327,0.062075,-0.257890
934430927,-1.300074,0.171123,0.125842,-0.965600,0.049983,-0.256682
934450987,-1.281158,-0.513751,-0.162255,-0.966880,0.064229,-0.256774
934471047,-1.017341,-0.930670,0.369411,-0.964403,0.059223,-0.264666
934491107,1.281902,-0.879210,0.039204,-0.973254,0.049485,-0.242625
934511168,0.854070,-1.944959,-0.646973,-0.961638,0.069631,-0.258664
934531227,2.033931,-1.176549,-0.189317,-0.960759,0.074554,-0.263387
934551287,1.045007,-1.054021,0.011757,-0.955923,0.060652,-0.263101
934571347,1.108556,-0.817857,0.231488,-0.965066,0.075775,-0.258434
934591408,1.559536,-0.240245,0.255571,-0.962495,0.078863,-0.258295
934611467,0.870239,-1.175388,0.090195,-0.958141,0.067916,-0.265885
934631547,0.146581,-0.977367,0.120497,-0.963418,0.062350,-0.258265
934651589,0.151950,-0.825945,-0.131455,-0.966514,0.052231,-0.254002
934671649,1.031242,-1.306282,-0.566691,-0.961747,0.063918,-0.261558
934691709,0.042301,-0.955793,-0.404299,-0.965069,0.067426,-0.251187
934711769,-0.106494,-0.643276,-0.083352,-0.959984,0.066222,-0.264500
934731829,-0.266076,0.010419,-0.136603,-0.961527,0.063814,-0.252555
934751889,0.214276,-0.742056,-0.010406,-0.963672,0.060424,-0.263594
934771949,-0.594447,-1.167400,-0.000463,-0.962869,0.064298,-0.256389
934792009,0.450718,-1.046084,0.048741,-0.963798,0.062684,-0.255273
934812069,0.407036,-0.270478,0.131099,-0.959249,0.060823,-0.255395
934832130,0.682757,0.497201,0.133759,-0.959732,0.072722,-0.253802
934852189,0.418647,-0.041540,0.496227,-0.967603,0.065423,-0.256618
934872249,0.427287,0.505823,0.509994,-0.966173,0.051098,-0.251070
934892310,-0.040179,0.482631,0.271290,-0.960712,0.057212,-0.258609
934912370,2.045352,0.695562,0.659443,-0.962270,0.057623,-0.256807
934932429,1.692841,0.148147,0.565611,-0.961487,0.063868,-0.259283
934952490,0.166560,0.391577,0.375954,-0.967750,0.069501,-0.258241
934972549,0.104745,0.201430,0.323761,-0.960173,0.071463,-0.257781
934992609,-0.763626,0.239969,0.394160,-0.967714,0.063815,-0.254861
935012669,-0.008057,-0.871448,-0.114342,-0.964121,0.064782,-0.260223
935032730,-0.937329,-0.445319,-0.097605,-0.959870,0.076581,-0.257329
935052790,-0.590828,-0.072280,0.187272,-0.962294,0.051927,-0.258791
935072850,-0.280783,0.208128,-0.114076,-0.961073,0.057762,-0.258621
935092910,-1.248920,0.542904,-0.157654,-0.957452,0.072983,-0.253612
935112970,-0.219520,1.000317,0.553947,-0.963519,0.063131,-0.255644
935133030,0.015864,1.174758,0.428981,-0.968360,0.047382,-0.255285
935153090,-0.642202,0.946476,0.223371,-0.960115,0.061887,-0.262147
935173150,-0.985532,-0.193272,0.382444,-0.964177,0.067927,-0.262828
935193210,-1.016207,-0.930393,0.483721,-0.966077,0.059158,-0.259129
935213270,-0.908985,-0.854329,0.520460,-0.964112,0.065963,-0.260518
935253390,-3.035518,-1.560008,0.690373,-0.961764,0.074753,-0.262942
935273450,-2.232058,-1.172078,0.924471,-0.965375,0.070121,-0.258330
935293510,-1.130693,-0.922777,0.469714,-0.966611,0.069553,-0.250326
935313570,0.533624,-0.694938,0.664289,-0.959888,0.069839,-0.261476
935333630,-0.661716,-0.086138,0.729213,-0.958532,0.062324,-0.267328
935353689,0.165848,0.461660,1.061723,-0.958886,0.062755,-0.268793
935373749,1.150707,0.917519,1.125986,-0.960030,0.071662,-0.266420
935393809,0.686639,0.796372,1.245705,-0.960270,0.073719,-0.254369
935413869,0.105774,0.895044,1.084152,-0.965661,0.082623,-0.258565
935433929,0.523296,-0.260594,1.090111,-0.967697,0.072768,-0.263938
935453989,0.384457,0.195001,0.854217,-0.960654,0.074627,-0.250024
935474049,0.033791,0.719476,0.772902,-0.962852,0.084244,-0.253852
935494109,0.036399,-0.254407,0.424741,-0.966137,0.075986,-0.262171
935514169,-1.581749,-0.352981,0.252198,-0.960931,0.066813,-0.257789
935534229,-0.658572,-0.003649,0.264057,-0.963480,0.068963,-0.256116
935554289,-1.940495,-0.117371,0.171701,-0.961319,0.068637,-0.267552
935574349,-1.016637,-0.102222,0.306340,-0.961777,0.071351,-0.264242
935594409,-1.641480,-0.276659,0.366984,-0.963702,0.083790,-0.249303
935614469,-1.189426,0.263222,0.505472,-0.962223,0.079613,-0.257126
935634529,-3.008324,-0.443796,0.176615,-0.963982,0.069000,-0.263938
935654589,-4.313458,-0.200445,-0.007846,-0.956036,0.073557,-0.261252
935674649,-2.069779,0.125925,0.164884,-0.962982,0.069750,-0.262492
935694709,-1.720190,0.832202,-0.061757,-0.967416,0.069973,-0.252520
935714769,-1.483086,0.421952,0.081487,-0.956482,0.074366,-0.262087
935734829,-0.908313,1.531876,0.201948,-0.961806,0.068654,-0.262101
935754889,0.699886,0.588841,0.308635,-0.962864,0.069191,-0.267844
935774949,5.054525,1.265538,1.105159,-0.957308,0.063329,-0.257249
935795010,5.368024,0.862893,1.262789,-0.962699,0.073257,-0.260374
935815069,3.462229,0.233024,1.384360,-0.960307,0.075960,-0.261320
935835129,2.898508,1.054044,1.297012,-0.963709,0.078411,-0.253748
935855189,2.741979,0.536395,0.972309,-0.967278,0.078945,-0.251051
935875249,0.278260,-0.087848,0.185401,-0.963863,0.078316,-0.258747
935895309,-1.367060,-0.757378,-0.328372,-0.966441,0.068849,-0.248858
935915369,-3.063775,-0.947675,-0.720846,-0.959795,0.071975,-0.259515
935935429,-3.349733,-0.505904,-0.413963,-0.964669,0.071124,-0.253345
935955489,-2.920547,-0.155985,-0.244258,-0.961349,0.068274,-0.262728
935975550,-1.112694,-0.513640,-0.087887,-0.962159,0.068245,-0.264550
935995610,0.499573,-0.460230,0.267751,-0.958216,0.069726,-0.266737
936015670,0.698076,-0.938972,0.373483,-0.961687,0.070610,-0.264773
