Timestamp (us),Gyroscope X (deg/s),Gyroscope Y (deg/s),Gyroscope Z (deg/s),Accelerometer X (g),Accelerometer Y (g),Accelerometer Z (g)
917422573,-0.413327,-0.107072,-0.084679,-0.979279,-0.175353,0.117578
917442577,-0.658610,-0.123779,-0.125808,-0.981537,-0.172859,0.114516
917462582,-1.193543,0.042119,-0.040412,-0.978378,-0.179548,0.111921
917482587,-0.455013,0.044749,-0.304801,-0.975110,-0.181278,0.112599
917502593,-0.287281,0.282750,-0.285579,-0.981627,-0.171532,0.117497
917522597,-0.583714,0.274198,-0.143286,-0.982268,-0.172450,0.116695
917542602,-0.692657,0.204162,-0.300842,-0.973076,-0.175090,0.114298
917562610,-0.411275,0.113190,-0.450239,-0.980600,-0.168625,0.113246
917582611,-0.443840,0.449262,-0.511249,-0.979446,-0.174349,0.113090
917602616,0.366126,0.629155,-0.533993,-0.977310,-0.184081,0.112379
917622619,1.444454,0.381873,-0.621482,-0.981786,-0.186898,0.110699
917642623,1.500916,0.321832,-0.417048,-0.981591,-0.186162,0.106582
917662628,1.327426,0.061431,-0.299231,-0.977848,-0.184926,0.105923
917702637,1.187277,-0.381677,-0.021907,-0.978384,-0.179972,0.113480
917722642,0.939233,-0.154282,-0.208029,-0.979506,-0.167314,0.115773
917742646,0.409428,0.041469,-0.305304,-0.975842,-0.162284,0.119048
917762651,0.303401,-0.027632,-0.242382,-0.979626,-0.171995,0.117600
917782657,0.326339,0.003104,-0.235265,-0.978509,-0.185657,0.114963
917802662,0.551817,0.071879,-0.520892,-0.977556,-0.177963,0.114443
917822666,0.042054,0.031897,-0.321415,-0.978532,-0.172390,0.116242
917842671,-0.410554,0.021552,-0.419625,-0.977930,-0.180243,0.113668
917862676,0.171594,-0.120724,-0.399470,-0.979569,-0.181292,0.110496
917882679,0.202622,0.101587,-0.309285,-0.977027,-0.181990,0.112702
917902683,0.272741,-0.066085,-0.256946,-0.978872,-0.185861,0.113690
917922688,0.433655,-0.095810,-0.244596,-0.974970,-0.188504,0.114205
917942693,0.673901,-0.193142,-0.035814,-0.978835,-0.179912,0.111746
917962697,0.473172,0.057907,-0.108781,-0.977985,-0.173059,0.114616
917982702,0.297273,-0.088429,-0.143272,-0.975180,-0.175569,0.117041
918002707,0.595482,-0.041028,-0.141199,-0.980216,-0.182156,0.112519
918022711,0.519855,-0.025824,-0.071417,-0.978029,-0.182075,0.112702
918042717,0.267726,0.103149,-0.013893,-0.977006,-0.177807,0.113255
918062722,-0.007233,0.025338,-0.001111,-0.978927,-0.179245,0.113373
918082726,0.117469,-0.095798,0.141385,-0.978406,-0.184432,0.112659
918102731,0.614734,-0.223423,0.109818,-0.979673,-0.181930,0.115068
918122736,0.037279,-0.447123,0.348967,-0.978008,-0.175800,0.118318
918142748,-0.558738,-0.541796,0.375231,-0.978809,-0.173211,0.115894
918162744,-0.951441,-0.299605,0.244939,-0.977705,-0.173317,0.110701
918182748,-0.564995,-0.015550,0.039544,-0.979751,-0.180626,0.112032
918202753,0.918608,0.076023,0.027564,-0.978681,-0.184793,0.112666
918222757,1.784690,-0.225308,0.073337,-0.976396,-0.182125,0.115349
918242762,1.305672,-0.686160,0.174353,-0.981739,-0.174480,0.119837
918262767,0.390290,-1.111042,0.260408,-0.975092,-0.175633,0.118501
918282771,-0.117495,-0.678142,0.154588,-0.974439,-0.173684,0.116274
918302776,0.208742,-0.095502,0.101701,-0.975545,-0.175562,0.117314
918322782,0.300789,0.058160,0.160514,-0.979108,-0.177349,0.117619
918342786,0.165147,0.142336,0.337695,-0.978302,-0.181413,0.114056
918362791,-0.243524,0.345957,0.146944,-0.979051,-0.184549,0.115851
918382796,-0.694304,0.504626,0.230827,-0.981346,-0.170745,0.116023
918402800,-0.887245,0.686855,0.150270,-0.978533,-0.172664,0.116157
918422804,-0.648733,0.451162,0.192097,-0.974480,-0.181401,0.115884
918442808,0.012455,-0.340658,0.235107,-0.980165,-0.187587,0.117918
918462813,-0.166882,-0.684734,0.467290,-0.976458,-0.176397,0.116053
918482817,-1.450974,-0.706201,0.543924,-0.981441,-0.170235,0.118930
918502822,-2.135709,-5.358404,0.772292,-0.982636,-0.182329,0.136041
918522827,-2.381392,-4.188583,1.009840,-0.974041,-0.171338,0.106198
918542831,-2.598221,-2.432082,0.690390,-0.980137,-0.145941,0.123360
918562836,-3.885329,-3.120575,0.365553,-0.978731,-0.152705,0.130611
918582842,-2.374684,-1.399293,0.509068,-0.974524,-0.156313,0.113914
918602846,-2.384922,0.677398,-0.301562,-0.978407,-0.167561,0.112680
918622851,-1.454849,1.189202,-1.566797,-0.980841,-0.181502,0.108584
918642856,0.211015,1.189405,-1.703557,-0.980267,-0.193576,0.108193
918662860,2.356198,1.244797,-2.024066,-0.979456,-0.196069,0.106148
918682864,3.449741,1.426293,-2.006343,-0.978905,-0.194311,0.108119
918702868,3.591898,1.755206,-2.161769,-0.980338,-0.191286,0.104591
918722873,4.140880,1.803349,-2.285932,-0.975394,-0.184983,0.108480
918742877,4.135543,1.543753,-2.178779,-0.976693,-0.188940,0.109835
918762882,2.877116,1.752949,-1.836976,-0.977782,-0.184213,0.119584
918782887,1.500443,1.876227,-1.781802,-0.975958,-0.165004,0.123845
918802892,0.242327,1.937646,-2.032828,-0.978912,-0.156424,0.121022
918822896,-0.011701,2.236855,-1.496567,-0.972095,-0.176711,0.119985
918842902,2.018135,0.793343,-1.674683,-0.971179,-0.210872,0.117309
918862907,3.584104,0.494322,-1.923014,-0.976550,-0.190198,0.124813
918882911,1.994014,0.900033,-1.735324,-0.979883,-0.161573,0.136078
918902916,-0.211138,1.102610,-1.832565,-0.973021,-0.153902,0.140944
918922921,-2.069160,1.261919,-1.723092,-0.968209,-0.159297,0.135408
918942925,-3.334162,0.583343,-1.531241,-0.970924,-0.175839,0.127992
918962928,-3.882286,-0.985622,-1.160284,-0.977730,-0.183096,0.140166
918982933,-6.248777,-2.164958,-0.513799,-0.973541,-0.189007,0.126343
919002938,-5.517920,-2.068089,-0.177499,-0.976071,-0.189750,0.115140
919022942,-5.945776,-1.671981,-0.033737,-0.980376,-0.197502,0.106814
919042947,-6.697458,-2.204668,-0.323038,-0.976773,-0.201435,0.115742
919062952,-4.331073,0.163705,-0.090094,-0.976947,-0.164834,0.118187
919082956,-6.135245,1.331949,-2.006723,-0.979991,-0.154837,0.118253
919102961,-7.148864,1.519831,-3.403174,-0.978661,-0.166978,0.105100
919122967,-6.120958,0.926353,-3.922420,-0.981316,-0.180926,0.076754
919142985,-5.661164,1.156193,-4.379977,-0.989584,-0.182031,0.063820
919162976,-5.757170,0.896496,-4.187525,-0.982150,-0.204602,0.066842
919182980,-4.073621,0.353977,-4.285347,-0.984644,-0.226462,0.070840
919202985,-0.365655,0.882566,-4.893910,-0.984493,-0.224747,0.089495
919222988,1.369258,0.964981,-5.572041,-0.976717,-0.209203,0.112710
919242993,1.097907,-1.048602,-5.790660,-0.979409,-0.198142,0.121142
919262997,2.370068,-1.908969,-6.420205,-0.981992,-0.207915,0.112039
919283002,3.015074,-1.925084,-7.397683,-0.979988,-0.192113,0.108893
919303007,3.305664,-0.757132,-8.257342,-0.969692,-0.168954,0.123203
919323011,2.471811,-0.000602,-9.217292,-0.964245,-0.151571,0.132702
919343016,0.331023,2.008075,-10.916782,-0.970033,-0.136793,0.149625
919363021,0.409098,3.053400,-13.414892,-0.969366,-0.096124,0.194474
919383027,0.570635,5.331932,-17.377413,-0.954268,-0.066378,0.237010
919403031,0.035892,10.217950,-22.405458,-0.948402,0.026484,0.323560
919423036,-0.898482,19.103781,-30.576044,-0.945661,0.216387,0.494285
919443041,3.876731,29.427284,-45.675064,-0.937584,0.369469,0.676434
919463045,13.268659,44.204094,-63.948051,-0.916770,0.343581,0.676167
919483051,25.018520,69.255043,-80.568665,-1.009077,0.238205,0.596237
919503053,25.447634,93.975388,-83.902740,-1.276926,-0.108004,0.551630
919523058,26.034008,99.056885,-65.445778,-1.388103,-0.529175,0.286747
919543062,53.455048,85.266319,-38.696167,-1.264246,-0.727503,0.065387
919563067,85.631050,58.412132,-14.436764,-1.069629,-0.582759,-0.013357
919583072,91.088478,16.637602,16.525055,-0.964058,-0.348118,0.023657
919603076,66.041794,-26.325764,56.120415,-0.856321,-0.227795,0.040667
919623081,44.742657,-63.501125,89.064072,-0.844523,-0.250601,0.046981
919643086,31.234922,-97.979225,112.019524,-0.874974,-0.321369,0.093698
919663092,25.861629,-118.747581,130.073364,-0.832293,-0.256654,0.147317
919683096,15.707025,-127.308510,139.737656,-0.873709,-0.195653,0.198901
919703101,4.420151,-127.663239,141.707993,-0.922400,-0.155978,0.233406
919723105,-4.160727,-121.158562,136.640091,-0.936785,-0.169418,0.280523
919743110,-5.992914,-108.576721,124.599060,-0.913984,-0.127899,0.286361
919763113,10.323470,-84.466202,102.498268,-0.831334,-0.070147,0.291578
919783118,30.747097,-53.680969,76.877907,-0.758751,0.017701,0.349868
919803123,36.194252,-29.095573,49.794956,-0.743542,0.095696,0.292136
919823127,29.044329,-5.364588,23.817577,-0.756442,0.102325,0.207561
919843132,15.643274,16.532028,0.163386,-0.759809,0.019099,0.084805
919863137,9.500101,37.478775,-19.833538,-0.755928,-0.086868,-0.034379
919883141,-2.042617,55.541325,-33.550755,-0.740431,-0.160029,-0.051467
919903146,-2.456864,101.848755,-41.808392,-1.159254,0.090397,0.380253
919923152,-40.145344,90.293167,-58.496025,-2.062886,0.084361,0.764081
919943157,-66.486374,65.557961,-52.987267,-0.936206,-0.465036,0.208507
919963166,-60.593334,65.956100,-52.684696,-0.659747,-0.467210,-0.081847
919983170,-46.177479,57.244846,-48.333843,-0.969244,-0.206313,-0.176168
920003175,-72.156456,46.586948,-41.859909,-1.057709,-0.240302,-0.297572
920023178,-84.110130,40.078693,-21.939377,-0.976835,-0.495822,-0.330008
920043183,-54.678852,42.751877,-8.944498,-0.972781,-0.843107,-0.199115
920063188,7.415167,44.676655,-9.606627,-0.921340,-0.803668,-0.088809
920083192,49.710392,43.532543,-19.802906,-1.040072,-0.433168,-0.084109
920103197,40.751717,31.513256,-22.981462,-1.081281,-0.025883,-0.114616
920123201,-7.717085,23.418524,-14.621469,-1.042502,0.039037,-0.151448
920143206,-43.807415,20.651134,-3.646989,-1.072280,-0.250881,-0.157428
920163211,-29.950958,18.013479,-0.098277,-1.009834,-0.508922,-0.142244
920183217,14.546797,19.507858,-5.610554,-0.951942,-0.478212,-0.045337
920203221,42.754150,19.226650,-11.871971,-0.985476,-0.145746,0.065273
920223226,31.529015,15.961171,-12.930367,-1.007173,0.099089,0.088428
920243231,8.089874,16.365595,-12.238866,-0.971889,0.159200,0.055154
920263235,1.007747,18.229338,-13.361470,-0.995736,0.131138,0.060255
920283238,9.731557,21.090586,-18.173048,-0.985498,0.225045,0.107768
920303243,7.268422,25.826017,-22.131453,-0.936148,0.284774,0.182649
920323248,-3.445382,29.473970,-23.792839,-0.921113,0.205963,0.154552
920343252,-10.172194,30.356224,-27.801815,-0.994190,0.062241,0.143715
920363257,-8.050385,30.994852,-34.936954,-1.038231,-0.124175,0.081361
920383262,1.324939,30.489223,-42.840183,-1.033030,-0.135817,0.090813
920403266,2.442593,26.626921,-46.098881,-0.979529,0.051846,0.078667
920423271,-15.320385,31.313107,-50.653469,-0.996005,0.112875,0.139490
920443277,-27.835854,40.270321,-57.009033,-0.995056,0.085693,0.265131
920463282,-23.909615,58.688232,-64.787804,-0.993672,-0.092273,0.322460
920483286,-2.402737,82.431320,-78.601883,-1.069972,-0.271383,0.367042
920503294,22.519213,92.991631,-96.181908,-1.170596,-0.233454,0.274699
920523296,44.567604,114.039253,-109.665092,-1.432440,-0.038259,0.603077
920543300,19.170418,121.343910,-115.242714,-1.490064,-0.089002,0.711712
920563303,28.163860,136.180084,-124.307007,-1.443645,-0.201576,0.620796
920583308,55.780617,146.894073,-137.647400,-1.534795,-0.280664,0.449891
920603312,74.983665,154.644073,-141.846985,-1.492623,0.033396,0.260471
920623317,7.419423,113.164230,-129.565582,-1.340738,-0.054150,-0.136244
920643322,-83.359093,57.956440,-91.150032,-1.236753,-0.505768,-0.556689
920663326,-25.875349,48.039474,-46.735317,-0.958645,-0.554826,-0.336350
920683331,-22.050879,13.277919,-0.923183,-0.838425,-0.759064,-0.407162
920703336,15.656868,-24.269934,47.199268,-0.714824,-0.897475,-0.530641
920723342,66.179665,-60.797432,82.409470,-0.442816,-0.938035,-0.585181
920743347,115.320465,-86.582230,109.635506,-0.299951,-0.800337,-0.635583
920763351,138.822983,-104.250145,139.286514,-0.322710,-0.601899,-0.615222
920783356,124.325836,-125.259415,174.799713,-0.351308,-0.366209,-0.540925
920803360,91.903442,-150.425140,209.112228,-0.350838,-0.500678,-0.543198
920823363,69.951073,-168.511444,237.552780,-0.403362,-0.562326,-0.376897
920843368,46.271973,-183.456375,254.838806,-0.518058,-0.533252,-0.176510
920863373,36.318611,-204.816040,250.368835,-0.691609,-0.764591,-0.237471
920883377,31.374659,-220.775986,245.476028,-0.984373,-0.598578,-0.131724
920903382,-17.667274,-214.390091,242.627121,-1.171041,-0.113194,0.188097
920923386,-83.762062,-186.700745,214.024429,-1.291842,0.163647,0.370389
920943391,-122.678757,-142.012955,164.850647,-1.012082,-0.357792,0.343803
920963396,-71.158340,-78.780563,93.936661,-0.444550,-0.084169,0.094414
920983402,-1.278623,-5.640528,14.590128,-0.604144,0.105489,-0.198206
921003406,36.022324,45.499165,-63.391403,-0.790107,-0.522972,-0.387936
921023411,25.262787,80.531631,-92.697708,-0.808615,-0.438230,0.164905
921043416,13.925146,79.172386,-49.172596,-1.759936,0.419291,0.851265
921063420,-108.173729,57.081181,-27.114651,-2.216490,-0.128947,-0.134717
921083426,-120.039459,51.117001,-23.524046,-0.619803,-0.584824,-0.434693
921103428,-94.221848,45.986221,-17.981846,-0.658599,-0.902747,-0.299437
921123433,-59.850246,36.644119,-9.384078,-1.056587,-0.792619,-0.160225
921143437,-27.308760,16.739199,-0.782213,-1.225583,-0.632851,-0.139167
921163442,-5.575244,10.228539,1.582631,-1.240361,-0.511514,-0.040276
921183447,-0.788497,4.475543,6.284370,-0.999320,-0.270619,-0.075793
921203451,-22.109917,-0.740011,8.303774,-0.967328,-0.098973,-0.206981
921223456,-31.517147,-4.553213,5.738271,-1.070989,-0.121487,-0.097247
921243461,-8.281438,-6.852321,9.412222,-1.078279,-0.107862,0.063474
921263467,6.894436,-8.285782,4.880921,-0.941298,0.022501,0.188079
921283471,8.465765,-3.675636,-4.663909,-0.904727,0.298140,0.260822
921303476,3.728815,3.008026,-9.984647,-0.929699,0.340487,0.328671
921323481,8.004123,9.099669,-15.985044,-0.969136,0.216994,0.356940
921343485,12.296866,12.751864,-20.147495,-0.981867,0.123905,0.284882
921363488,7.739042,14.574331,-19.559250,-1.021343,0.075228,0.178973
921383493,-1.205471,14.613892,-13.906150,-0.997500,-0.055871,0.160888
921403497,-4.255187,13.763964,-10.464704,-0.973713,-0.192160,0.156037
921423502,-1.461377,16.062878,-10.900975,-1.010422,-0.163853,0.140280
921443507,1.048965,17.923838,-11.483188,-0.988304,-0.078839,0.148421
921463511,7.065082,18.754776,-13.906288,-0.953301,-0.098122,0.132629
921483516,18.780283,14.230879,-21.774481,-1.079157,0.073806,0.033969
921503521,18.280375,10.223911,-24.752481,-1.098410,0.170906,0.078098
921523527,5.938715,8.149212,-23.162090,-0.923738,0.019485,0.106565
921543532,8.546734,3.535268,-23.252247,-0.963698,-0.136907,0.126569
921563537,15.535223,3.308409,-20.108841,-0.988293,-0.137635,0.166395
921583541,12.117500,2.399946,-15.588321,-0.948115,-0.112683,0.184080
921603545,4.307756,2.396123,-14.374036,-0.945580,-0.129118,0.150593
921623549,3.311533,1.604395,-14.133582,-0.977313,-0.127566,0.127000
921643553,4.192125,-1.134496,-13.626248,-0.995477,-0.086436,0.118754
921663558,1.274352,-2.627840,-14.254201,-0.998854,-0.096462,0.139012
921683562,0.637558,-4.859499,-14.975186,-0.988368,-0.156172,0.155103
921703567,3.162841,-7.153283,-16.088137,-0.969283,-0.152061,0.186406
921723571,2.560496,-4.240829,-17.490665,-0.957572,-0.056592,0.230698
921743576,1.313372,-0.336657,-20.533926,-0.949275,0.022622,0.296742
921763581,-0.953370,3.773612,-24.266342,-0.948590,0.070732,0.351286
921783587,1.137208,8.129798,-29.325714,-0.999551,0.144275,0.382180
921803592,10.322104,15.249097,-36.915840,-1.009410,0.177017,0.388520
921823596,16.958183,23.121050,-46.149555,-0.989153,0.201139,0.432636
921843602,24.135990,32.317753,-57.456989,-1.056978,0.204290,0.462756
921863605,21.745747,46.769325,-66.092857,-1.204143,0.153837,0.611207
921883610,17.523359,72.899300,-76.022377,-1.386104,-0.140385,0.913099
921903613,29.002129,89.639595,-88.124832,-1.549055,-0.492633,0.874490
921923618,57.154213,92.546440,-100.042717,-1.878597,-0.437600,0.694719
921943622,70.995743,82.850563,-100.036629,-1.858902,-0.270345,0.257727
921963627,48.432014,97.681602,-84.937531,-1.494470,-0.094709,0.082015
921983632,-23.350721,99.863609,-72.526741,-1.495047,-0.525801,-0.169400
922003636,-32.457069,119.162903,-67.728241,-1.740483,-0.919778,-0.291047
922023641,-5.623535,126.950706,-84.941269,-1.510881,-1.118731,-0.379062
922043646,16.579039,120.694633,-88.106491,-1.166632,-0.904737,-0.394847
922063652,22.656528,114.522430,-88.294220,-1.178185,-0.901062,-0.519840
922083656,28.777374,95.043320,-79.425774,-1.155884,-0.821777,-0.483775
922103661,10.071858,68.406540,-80.697968,-1.041780,-0.579153,-0.539360
922123665,-21.331850,44.914616,-64.347054,-0.853473,-0.399597,-0.520995
922143670,-63.340389,26.960720,-40.355770,-0.668101,-0.431890,-0.554112
922163673,-81.997192,7.482412,-25.105133,-0.551332,-0.578748,-0.656458
922183678,-77.030128,-3.737803,-18.607140,-0.283920,-0.558280,-0.541758
922203682,-75.186440,-13.437296,-15.926556,-0.147186,-0.635406,-0.562717
922223687,-47.191315,-24.511744,-11.558721,-0.176804,-0.573795,-0.489706
922243692,-32.145931,-42.282810,-12.864123,-0.063763,-0.343607,-0.379382
922263696,-40.555046,-50.042290,-7.514794,-0.011568,-0.219206,-0.322682
922283701,-50.532997,-50.225723,-10.062973,-0.001023,-0.192723,-0.205234
922303706,-48.102779,-49.692780,-13.576080,0.076904,-0.193324,-0.098273
922323712,-42.250870,-50.229366,-15.468365,0.228694,-0.240910,-0.016063
922363721,-21.576572,-39.269333,-25.580379,0.080109,-0.301042,0.090462
922383725,-15.485177,-35.659332,-27.372387,-0.029463,-0.374936,0.110430
922403730,-8.386384,-31.606182,-28.651403,-0.085040,-0.436244,0.088818
922423735,-4.587639,-25.057137,-28.925514,-0.182600,-0.497202,0.020193
922443738,-2.344368,-17.695587,-26.868986,-0.311849,-0.572369,-0.047087
922463743,1.993144,-9.400900,-21.818434,-0.429494,-0.641361,-0.115208
922483747,3.928835,-0.835433,-14.945342,-0.531496,-0.656296,-0.164263
922503752,5.714888,5.094312,-9.082544,-0.582960,-0.657348,-0.211624
922523757,7.953560,10.075010,-3.948254,-0.575362,-0.660591,-0.236711
922543761,10.227446,15.578354,-0.062950,-0.557308,-0.640572,-0.237279
922563766,12.110151,21.579844,2.718062,-0.561489,-0.592228,-0.248116
922583771,16.277225,26.967014,3.960821,-0.531311,-0.519220,-0.205896
922603777,15.341309,31.988506,6.224977,-0.432821,-0.500920,-0.166943
922623781,16.688063,36.596191,9.186210,-0.285085,-0.515350,-0.150145
922643786,18.856230,41.244804,11.797809,-0.219127,-0.513209,-0.188671
922663791,16.405693,43.200737,16.157337,-0.277719,-0.517803,-0.276631
922683795,21.398109,39.772640,24.287325,-0.372391,-0.503461,-0.314968
922703798,30.426685,32.811310,33.005959,-0.355472,-0.525370,-0.231353
922723803,32.998680,24.727325,42.582207,-0.273080,-0.595702,-0.255344
922743808,34.478794,17.518881,52.541340,-0.308306,-0.673932,-0.335209
922763812,36.382896,7.697722,62.643200,-0.472218,-0.579284,-0.340898
922783817,24.153091,-11.240786,71.182533,-0.621726,-0.530533,-0.380278
922803821,9.350994,-35.230522,89.240288,-0.647111,-0.548192,-0.396179
922823826,-3.917904,-55.388390,107.383102,-0.659919,-0.624260,-0.474692
922843831,-10.976089,-70.134254,121.081230,-0.740559,-0.644327,-0.515137
922863837,-6.577597,-85.957298,128.504990,-0.908193,-0.862221,-0.625506
922883841,17.599514,-102.503029,123.882431,-1.166447,-0.989999,-0.732993
922903846,43.820572,-122.467766,118.477615,-1.437056,-0.611026,-0.530541
922923851,25.734579,-141.130432,103.092270,-1.692741,-0.293167,-0.303303
922943855,-14.732172,-146.683853,91.331245,-1.922814,-0.134530,-0.012889
922963858,-73.771149,-145.219208,74.013649,-2.026457,-0.187186,0.223914
922983863,-87.230164,-99.112854,51.704647,-1.516572,-0.196650,0.361498
923003868,-41.724453,-49.543163,27.364853,-1.368111,0.436939,0.465923
923023872,-38.248985,-43.154327,25.743370,-2.000748,0.463301,0.853714
923043877,-63.608936,-23.001034,56.949734,-1.972765,0.775091,1.069395
923063881,-71.204781,-27.154362,18.344248,-1.618776,-0.317704,1.279465
923083886,-6.106032,-23.263741,-9.669932,-0.338785,-0.963910,0.403220
923103891,76.945694,6.848214,-4.952239,-0.248294,-0.030113,0.212261
923123897,15.456139,15.395253,6.534433,-0.885447,0.424630,0.083585
923143902,-39.870537,12.626601,14.854925,-1.403544,0.063065,-0.206816
923163907,-26.857061,7.380809,19.345062,-1.185362,-0.235388,-0.188700
923183911,-0.877252,9.809711,18.304327,-0.846150,-0.261774,0.055139
923203915,8.087708,16.596886,10.194235,-0.843791,-0.063994,0.253601
923223920,-13.221689,15.128124,6.585085,-1.011155,0.149649,0.327353
923243923,-45.091908,9.660666,6.834913,-1.059130,0.124053,0.206741
923263928,-56.854511,9.114498,7.491136,-0.998976,-0.081358,0.022370
923283933,-42.468109,11.710775,5.626629,-0.979162,-0.276982,-0.103627
923303937,-21.081787,12.729598,3.950202,-0.981943,-0.411025,-0.117856
923323942,-0.444652,12.761190,6.677506,-0.965450,-0.395590,0.002377
923343947,8.333830,10.435594,8.690470,-0.975134,-0.249328,0.039955
923363951,1.036269,7.515369,6.807006,-1.010727,-0.158074,0.000671
923383956,-10.148954,4.319109,7.626063,-0.998315,-0.158153,-0.052009
923403962,-13.878775,6.141099,8.929296,-0.982120,-0.237332,-0.027673
923423966,0.594647,4.430898,6.738409,-1.016961,-0.282232,-0.119522
923443971,18.011120,1.339544,1.713858,-1.095698,-0.179311,-0.188273
923463976,18.963482,-3.256429,4.269754,-1.034874,-0.077976,-0.135104
923483980,6.184469,-3.562841,6.799440,-0.999754,-0.137719,-0.094001
923503983,8.360698,-5.548847,6.559061,-1.021666,-0.221168,-0.067529
923523988,20.966314,-5.906150,4.627198,-0.986219,-0.198449,-0.016163
923543993,34.193325,-8.375182,1.700245,-0.992405,-0.109701,-0.011233
923584002,30.901133,-9.240093,1.845736,-0.996896,-0.017980,0.059829
923604006,30.928526,-4.296885,-1.154627,-1.016358,0.002110,0.094222
923624011,29.553127,-2.225375,-3.385294,-0.993404,0.127345,0.152327
923644016,18.555824,0.992681,-6.926487,-0.977108,0.170654,0.221574
923664022,9.108101,6.048093,-13.709187,-0.988073,0.144923,0.257824
923684026,6.048823,11.824701,-18.510838,-0.984968,0.073447,0.330124
923704031,11.911220,17.970613,-20.760733,-0.959270,-0.049223,0.359917
923724036,20.551308,27.144819,-22.741037,-0.892454,-0.208724,0.283112
923744040,27.716785,36.941914,-22.110380,-0.815789,-0.298265,0.205988
923764045,33.997486,41.447174,-20.348911,-0.813224,-0.316580,0.111911
923784048,32.459396,44.090580,-19.117826,-0.870954,-0.298705,0.018116
923804053,22.766766,37.821259,-16.144001,-0.967360,-0.249506,-0.143194
923824058,3.351383,29.230625,-9.710486,-1.007264,-0.169447,-0.238234
923844062,-21.819761,21.393612,-4.466797,-0.999182,-0.218408,-0.263301
923864067,-40.083195,15.405956,1.247823,-1.026729,-0.314317,-0.230838
923884071,-42.612820,10.667046,3.091698,-1.091902,-0.406548,-0.188377
923904076,-29.198814,3.126211,1.412442,-1.093232,-0.492337,-0.206961
923924081,-9.253416,-3.418262,3.338395,-1.017696,-0.488386,-0.204669
923944087,5.703028,-5.035041,6.454131,-0.988914,-0.392120,-0.175141
923964092,8.415754,-8.794580,7.561653,-1.009035,-0.212152,-0.156953
923984096,-1.930831,-12.791771,9.690484,-1.015348,-0.100781,-0.121486
924004100,-16.849016,-16.504906,12.122341,-1.006756,-0.114076,-0.083460
924024105,-22.611389,-19.089340,11.875603,-0.981443,-0.151670,-0.044553
924044108,-22.218149,-20.499878,10.586483,-0.984116,-0.187951,-0.035794
924064113,-18.580399,-20.934298,10.201923,-0.985435,-0.211362,0.010905
924084117,-13.238050,-21.597837,9.657607,-0.969809,-0.210975,0.031339
924104122,-9.187701,-20.527367,10.205089,-0.953541,-0.188148,0.063351
924124127,-9.252287,-18.882755,10.377424,-0.948868,-0.190633,0.086747
924144131,-6.990513,-17.193081,11.199370,-0.956871,-0.139928,0.079595
924164136,-6.679351,-12.504089,11.076572,-0.981441,-0.139731,0.067982
924184140,-7.400448,-9.241742,11.196327,-0.977992,-0.176601,0.066732
924204147,-7.198629,-7.113889,11.393139,-0.969587,-0.175255,0.059057
924224151,-7.463520,-3.921430,10.706272,-0.980909,-0.142726,0.025193
924244156,-6.653776,-2.983269,9.130466,-0.984455,-0.063209,0.008252
924264161,-10.242579,-4.183165,8.164237,-0.999959,-0.045232,0.018624
924284165,-15.775026,-5.053806,7.818159,-1.013666,-0.113149,-0.003622
924304172,-13.889930,-4.519825,7.045015,-0.998271,-0.127627,0.002983
924324173,-9.735288,-4.214882,5.447844,-0.998904,-0.114034,-0.007415
924344178,-6.954259,-4.319174,4.576208,-1.002445,-0.121260,-0.030703
924364182,-6.260982,-5.020906,4.177363,-1.005874,-0.110104,-0.060382
924384187,-5.447151,-6.705385,4.539023,-1.009952,-0.107916,-0.022961
924404191,-13.434814,-5.608290,5.890921,-0.988973,-0.116605,0.027386
924424196,-18.331493,-6.240536,5.091671,-0.982611,-0.049353,0.074344
924444201,-20.294523,-6.531970,1.774402,-0.998346,0.046343,0.088693
924464205,-20.143961,-8.972957,-4.245626,-1.060172,0.235216,-0.005219
924484211,-20.049006,-7.283546,-8.190386,-1.051485,0.148915,0.019070
924504216,-10.857840,-8.827880,-10.049847,-0.970893,-0.064536,0.052331
924524221,8.416865,-11.933838,-11.663270,-0.976937,-0.193954,0.041742
924544225,16.422253,-6.055605,-11.016150,-0.972933,-0.188607,0.057045
924564230,12.105742,-3.391284,-8.738380,-0.962067,-0.185109,0.053614
924584233,5.853837,-2.571327,-8.094229,-0.978432,-0.150245,0.040758
924604238,2.121421,-3.536485,-9.446217,-1.008370,-0.094543,0.036759
924624242,0.197501,-5.032655,-10.122654,-1.008325,-0.048380,0.046029
924644247,-1.865737,-3.215061,-10.058853,-0.992339,-0.020794,0.051595
924664252,-3.989210,-1.787504,-11.757337,-0.979446,-0.082983,0.085974
924684256,-3.802684,-1.803362,-12.118108,-0.961122,-0.180211,0.091990
924704261,-0.455823,-2.277594,-12.527706,-0.981487,-0.202189,0.103262
924724266,1.029524,-2.338990,-10.714263,-0.987050,-0.176658,0.084774
924744272,-8.025035,-0.547318,-6.561260,-0.958165,-0.181578,0.111623
924764276,-19.425226,1.272083,-3.917001,-0.932308,-0.145978,0.121961
924784281,-24.416031,3.979400,-5.178418,-0.952877,-0.158701,0.123836
924804286,-26.974251,2.952058,-4.528791,-0.973631,-0.202247,0.093153
924824290,-27.073246,3.060886,-2.154602,-0.965974,-0.209381,0.073341
924844295,-26.471170,2.397160,-2.498643,-0.991046,-0.248825,-0.014778
924864298,-22.744484,3.648988,-2.082571,-1.024446,-0.306269,-0.045649
924884303,-17.442722,1.549622,-0.288266,-0.983255,-0.298572,-0.033538
924904307,-15.191875,3.023842,0.230185,-0.968526,-0.256106,0.000442
924924312,-15.261882,2.116907,1.062425,-0.977718,-0.255953,0.038993
924944317,-12.090835,2.544806,2.631169,-0.941600,-0.178676,0.083413
924964321,-15.115505,5.228660,2.527972,-0.952851,-0.134348,0.088057
924984326,-17.486204,6.939468,3.031071,-0.979237,-0.095810,0.084047
925004330,-22.717754,6.645344,3.028021,-0.986309,-0.067012,0.055644
925024336,-25.591667,6.052963,0.169070,-1.012624,-0.064472,0.014168
925044341,-26.737099,4.412289,-1.258844,-1.004271,-0.130553,-0.009637
925064346,-21.535467,5.265354,-1.058802,-0.985525,-0.204884,-0.015666
925084350,-11.864575,5.657262,-3.159533,-1.012802,-0.253407,-0.033492
925104355,2.852443,5.691854,-9.031849,-1.014135,-0.301142,-0.082847
925124358,20.800812,6.812771,-13.231551,-1.005881,-0.316658,-0.104402
925144363,39.212845,8.036213,-13.584385,-1.005147,-0.301661,-0.112091
925164367,55.061256,7.934827,-14.929410,-1.010854,-0.288409,-0.094317
925184372,64.927269,6.965797,-15.357578,-0.987195,-0.270228,-0.037220
925204377,72.685951,7.937198,-15.554119,-0.950971,-0.214817,0.030712
925224381,74.614830,8.266850,-17.696424,-0.954804,-0.186735,0.060950
925244386,73.140984,7.827061,-20.505136,-0.958773,-0.146983,0.099065
925264391,72.321472,9.694692,-26.448891,-0.970887,-0.176180,0.110129
925284397,84.102295,8.120436,-34.948574,-1.003878,-0.229067,0.028110
925304401,104.539238,-0.210757,-40.274677,-1.017121,-0.241943,-0.113962
925324406,119.810120,-8.069630,-41.614357,-1.047324,-0.252007,-0.242163
925344410,123.470558,-12.833211,-38.521767,-1.077826,-0.294537,-0.270144
925364415,121.248604,-16.015902,-36.147106,-1.115857,-0.317677,-0.349220
925384419,121.846191,-15.530689,-34.219906,-1.171710,-0.304001,-0.310456
925404423,121.472900,-24.667562,-27.812054,-1.110241,-0.300906,-0.166940
925424427,131.555435,-23.593893,-24.644224,-1.000643,-0.341052,-0.059589
925444432,160.952881,-3.896022,-25.953730,-0.924070,-0.233178,0.098950
925464437,194.844971,27.609488,-29.075287,-0.802089,-0.157181,0.117064
925484442,248.567474,80.817978,-36.226681,-0.821310,-0.246313,-0.187386
925504446,343.387207,137.985275,-47.974808,-0.971428,-0.474200,-0.459905
925524451,449.602600,182.889130,-54.442135,-0.950427,-0.700261,-0.535775
925544457,522.237488,210.044693,-49.163254,-0.807411,-0.546748,-0.574920
925564462,538.414734,227.702499,-50.516670,-0.821042,-0.364112,-0.686150
925584466,516.006958,239.393280,-66.059830,-0.935742,-0.360242,-0.756664
925604471,477.693512,240.709976,-79.799599,-0.924343,-0.207542,-0.679259
925624475,422.927246,235.597733,-85.811050,-0.855514,0.006236,-0.553703
925644480,362.472717,232.023102,-84.817558,-0.740423,-0.179488,-0.439822
925664483,314.176392,218.283737,-69.520058,-0.760970,-0.394851,-0.485967
925684488,290.625122,197.105682,-48.822891,-0.918647,-0.383635,-0.631809
925704492,275.993530,167.342575,-32.679070,-1.074048,-0.114640,-0.729386
925724497,244.523117,133.053009,-16.089432,-1.191217,0.097294,-0.744062
925744502,202.748642,92.080200,3.988000,-1.196658,0.223007,-0.655369
925764506,160.337372,53.191624,22.155909,-1.138260,0.125858,-0.561325
925784511,134.868622,15.741683,36.506702,-1.116333,-0.022775,-0.452875
925804516,119.830856,-12.915196,48.837883,-1.050355,-0.104819,-0.330137
925824522,119.199814,-22.904079,62.134537,-0.920790,-0.222290,-0.042764
925844526,107.036766,-28.732098,78.551598,-1.000200,-0.204309,0.157619
925864531,75.326050,-65.340012,100.656624,-1.177830,0.363524,-0.000869
925884535,5.631754,-48.030266,97.937874,-1.360599,0.574401,0.323002
925904540,-62.806187,-35.640678,80.203590,-1.537953,0.241983,0.759152
925924543,-51.695763,-36.723057,74.931725,-1.520422,-0.409094,0.478510
925944548,8.165703,-24.954834,60.743988,-0.630255,-0.611162,-0.006305
925964553,92.378868,-22.002262,34.019321,-0.611386,0.082847,-0.274884
926004562,-26.414709,-14.184709,17.097130,-1.183010,0.274391,-0.058138
926024567,-6.485470,-13.822729,15.555161,-0.967561,-0.154113,0.017237
926044571,28.708708,-11.827047,9.496103,-0.870315,-0.057834,0.149690
926064576,28.001358,-9.571220,1.146369,-0.973453,0.173593,0.181769
926084582,17.725143,-7.413046,-2.519594,-1.057554,0.140390,0.150613
926104586,13.590281,-5.824658,-3.558287,-0.993125,-0.016964,0.171497
926124591,19.755636,-5.920510,-6.506709,-0.979325,-0.129957,0.124676
926144596,29.720085,-4.663518,-8.744026,-0.989737,-0.102393,0.120910
926164600,29.751068,-3.269877,-8.352324,-0.991368,-0.085521,0.158582
926184605,24.198105,-2.118300,-9.721649,-0.996093,-0.074447,0.138476
926204608,22.357964,-1.053874,-12.648800,-1.003063,-0.061682,0.149330
926224613,25.174217,-5.706513,-14.932782,-0.987480,-0.023531,0.157050
926244618,26.559753,-13.303471,-19.153633,-1.027522,0.124884,0.083956
926264622,17.648033,-13.209408,-24.299797,-1.033170,0.300954,0.140077
926284626,-6.654005,-7.631463,-30.813549,-0.988008,0.285994,0.197329
926304631,-23.149153,2.910789,-39.199215,-0.986735,0.020363,0.299842
926324636,-17.812233,20.284317,-42.392879,-0.944388,-0.400394,0.318681
926344641,8.280070,41.571419,-36.383499,-0.904543,-0.744003,0.210768
926364647,48.656609,59.358910,-21.317883,-0.878046,-0.836048,-0.137236
926384651,110.452026,86.629776,-11.933369,-0.890641,-0.839975,-0.304470
926404656,173.893387,105.879196,-8.013027,-0.849192,-0.938803,-0.380081
926424661,230.414444,109.444290,-1.026167,-0.763102,-0.792618,-0.483515
926444665,259.580231,106.298874,-2.089336,-0.744295,-0.445085,-0.527590
926464668,246.969238,91.868599,-4.990658,-0.820297,-0.310743,-0.393485
926484673,213.760437,61.929527,-3.010573,-0.800982,-0.275973,-0.266804
926504678,161.774368,29.442093,6.640029,-0.736117,-0.253138,-0.085941
926524682,110.066574,-1.480054,22.692692,-0.774148,0.047350,0.087311
926544687,36.122940,-26.472347,46.246536,-1.026821,0.390519,0.710994
926564691,-65.378128,-24.260086,41.440960,-2.221503,0.782062,0.896266
926584696,-97.664864,-6.927051,17.319309,-1.931152,-0.483494,0.283224
926604701,-69.215927,-5.880871,31.963146,-0.165352,-0.791968,-0.006690
926624706,36.160702,-12.982504,5.804258,-0.263956,-0.635723,-0.234551
926644711,83.284744,-13.269040,-28.307026,-1.232211,0.219443,-0.105764
926664716,37.080936,-4.313908,0.140377,-1.435934,0.530262,0.087037
926684721,-15.001695,-2.322190,10.892951,-0.938159,0.032949,0.194708
926724740,15.892977,-8.611011,0.345366,-0.948787,-0.404330,0.110613
926744733,25.925041,-5.526734,-2.087456,-1.022344,-0.052889,0.114481
926764737,6.558066,-5.607047,2.128071,-1.034523,0.125658,0.079556
926784742,-15.105705,-5.060888,3.478982,-0.963235,0.050721,0.081810
926804747,-21.167034,-5.017837,0.980734,-0.927431,-0.139984,0.114369
926824751,-12.791581,-3.931386,-1.713992,-0.969009,-0.276570,0.130777
926844756,1.164268,-6.097901,-2.670087,-0.979594,-0.305113,0.152770
926864761,4.726976,-5.381449,-2.067303,-0.955895,-0.232398,0.115761
926884765,-1.214785,-10.119580,-1.400929,-0.990177,-0.139014,0.107707
926904772,-11.997418,-5.862741,-0.013001,-0.971920,-0.098008,0.023290
926924776,-20.606701,-0.072736,-2.211835,-0.967182,-0.113584,0.026075
926944781,-14.211084,4.863531,-7.259563,-0.997592,-0.133578,0.095552
926964786,-1.311517,8.760973,-10.727380,-0.954662,-0.065324,0.211278
926984790,4.991381,14.488270,-18.528090,-0.924658,0.029319,0.303566
927004793,8.133103,20.942444,-29.740665,-0.942923,0.170843,0.337400
927024798,6.475643,29.694025,-41.715305,-0.943958,0.347887,0.327044
927064807,19.758581,61.528011,-73.094162,-1.004650,0.456268,0.436261
927084812,12.160186,71.064819,-85.791458,-1.080044,0.133634,0.465262
927104816,-0.623277,87.210617,-84.515884,-1.312768,-0.206764,0.327040
927124821,-0.018969,100.995369,-75.151352,-1.758893,-0.040471,0.033171
927144826,-25.003815,86.464890,-65.089706,-1.667926,-0.399087,0.091376
927164832,-54.996105,53.066486,-27.334942,-1.081566,-0.685195,-0.180679
927184837,-32.002628,32.989063,19.289083,-0.758735,-0.460793,-0.166161
927204841,-22.642771,-5.310260,62.788059,-0.797786,-0.474846,-0.130366
927224846,-9.897094,-51.388664,99.984581,-0.814605,-0.563177,-0.153841
927244850,24.401157,-92.199013,125.476723,-0.790748,-0.609345,-0.136916
927264867,78.501190,-117.151245,129.964157,-0.780877,-0.729185,-0.111121
927284858,139.562592,-126.538582,133.878906,-0.704128,-0.577605,-0.010363
927304863,144.298279,-131.056091,150.647278,-0.720262,-0.085796,0.156829
927324867,61.585510,-136.839813,171.510757,-0.802717,0.367477,0.356451
927344872,-48.778511,-135.526062,176.541458,-0.935068,0.342489,0.289238
927364876,-118.854080,-135.983383,153.687469,-1.125246,0.044966,0.086557
927384881,-122.326340,-124.157684,105.396423,-1.048224,-0.117196,0.001797
927404886,-92.762581,-89.191566,55.326416,-0.660245,-0.081087,0.217892
927424890,-75.011086,-41.082058,20.749372,-0.394480,-0.084790,0.234527
927444896,-52.830406,14.794367,-19.903118,-0.484682,-0.156752,-0.061973
927464901,-18.227921,58.461601,-56.343037,-0.672318,-0.374716,-0.106085
927484906,82.447464,140.522644,-69.433037,-1.150245,-0.053131,0.366961
927504911,104.604141,94.344261,-63.920929,-2.470927,-0.006050,0.843367
927524915,44.213638,62.104912,-59.775871,-0.980774,0.066723,0.059307
927544918,-2.365923,61.389923,-72.052704,-0.425457,0.110555,-0.038720
927564923,-50.580032,60.073017,-63.492249,-0.814906,0.244799,-0.207052
927584927,-106.501244,53.916924,-50.689320,-1.114282,0.047257,-0.427952
927604932,-154.996918,43.840672,-22.339426,-1.213424,-0.440342,-0.314567
927624937,-145.001816,34.007595,2.588788,-1.072323,-0.974363,-0.325661
927644941,-50.955139,32.242088,4.365400,-0.832144,-1.063209,-0.272678
927664946,53.100758,36.103798,-11.801977,-0.888977,-0.729351,-0.210537
927684951,90.489380,35.559265,-22.648039,-1.028226,-0.278634,-0.124624
927704957,61.335033,25.455683,-22.437048,-1.116827,0.049952,-0.087214
927724961,5.653106,19.188686,-18.170595,-1.008655,0.025279,-0.082291
927744966,-26.008650,18.342548,-8.482555,-1.023183,-0.342801,-0.129874
927764971,-6.417471,20.254845,-2.797529,-1.065277,-0.482705,-0.135463
927784975,28.501335,19.805691,-4.290854,-1.005317,-0.436390,-0.113904
927804980,53.418232,18.708891,-11.418336,-1.007252,-0.228296,-0.094443
927824983,52.110809,15.206605,-13.432224,-1.015773,0.029889,-0.023407
927844988,24.869156,12.810130,-14.087256,-0.995841,0.091483,-0.031201
927864993,5.256349,13.593770,-11.458588,-1.016189,-0.039536,-0.044511
927884997,12.558360,13.119054,-11.278513,-0.999421,-0.117736,-0.030497
927905002,26.066147,12.702492,-13.842619,-0.980946,0.012908,0.048278
927925006,20.789539,15.353901,-15.326850,-0.969863,0.174006,0.123598
927945011,1.974581,16.153595,-17.146212,-0.932370,0.179861,0.114043
927965019,-11.054213,19.755711,-21.487843,-0.939734,0.145657,0.106526
927985025,-17.674295,23.052807,-26.051788,-0.919687,0.143100,0.097577
928005029,-22.390167,25.930622,-30.771084,-0.942785,0.109800,0.123117
928025034,-24.143850,28.145823,-38.424889,-1.004017,-0.013152,0.120623
928045038,-17.714506,31.455376,-44.815540,-1.040059,-0.060959,0.113894
928065043,-11.243856,35.941868,-47.779949,-1.035564,-0.150152,0.089826
928085046,-4.116626,41.567574,-53.435711,-1.071956,-0.197412,0.035494
928105051,5.999312,48.224281,-63.049339,-1.046991,-0.223738,0.094502
928125056,12.931703,55.387512,-72.043480,-1.045391,-0.234165,0.171391
928145060,23.976299,57.289940,-80.355179,-1.105457,-0.204969,0.090309
928165065,37.969067,71.134430,-89.378868,-1.268483,-0.075532,0.182741
928185069,9.969822,73.320724,-92.327133,-1.270013,-0.209406,0.306360
928205074,3.745072,80.658501,-94.869438,-1.190965,-0.238721,0.287089
928225078,12.410511,92.351181,-101.791321,-1.233878,-0.259477,0.365045
928245085,26.150822,99.875496,-111.305550,-1.315953,-0.197407,0.474450
928265089,42.021717,105.808540,-118.048767,-1.325810,-0.076545,0.445170
928285094,55.309521,104.033134,-117.936569,-1.233289,0.090541,0.031430
928305098,-9.733366,86.029030,-105.556770,-1.168583,-0.167360,-0.154874
928325103,-87.890915,41.243099,-75.508560,-1.094092,-0.500158,-0.417863
928345121,-32.995094,38.522167,-42.683010,-0.887947,-0.616156,-0.448519
928365111,-16.549490,21.751741,-3.833414,-0.780205,-0.750910,-0.475360
928385116,19.706196,-9.533643,38.514084,-0.721743,-0.757429,-0.523293
928405120,47.341362,-42.047798,75.408951,-0.621287,-0.789528,-0.591621
928425125,82.068855,-68.248756,106.502632,-0.490885,-0.822644,-0.608744
928445130,110.277969,-85.866043,133.421524,-0.415211,-0.778919,-0.656402
928465134,129.440369,-95.679642,157.407318,-0.436562,-0.697122,-0.606858
928485139,125.812729,-111.252930,186.748474,-0.369145,-0.502516,-0.507262
928505144,97.385902,-122.389938,224.309998,-0.335433,-0.506465,-0.351694
928525150,56.104893,-136.186432,254.065674,-0.473106,-0.589175,-0.165194
928545154,33.753185,-156.103287,264.000458,-0.658199,-0.497789,-0.115320
928565159,35.602505,-169.402756,248.833527,-0.927970,-0.604451,-0.236836
928585163,27.960741,-177.792938,232.238678,-1.228374,-0.372128,-0.056960
928605168,-29.469755,-168.099915,207.390137,-1.309881,0.094675,0.200919
928625171,-102.219109,-138.258774,165.542282,-0.998575,0.025680,0.227694
928645176,-137.035553,-94.237236,107.519768,-0.660273,-0.345822,0.124185
928665180,-89.277359,-34.978222,32.797272,-0.501230,-0.324329,-0.069610
928685185,-7.860336,25.187065,-35.961414,-0.589288,-0.560265,-0.331129
928705190,53.603249,72.043304,-82.950378,-0.768459,-0.716081,0.075983
928725194,96.432671,80.797203,-76.798584,-1.731730,0.174082,0.681888
928745199,-6.016362,37.991425,-30.290226,-1.720383,0.074873,0.329270
928765204,-41.498436,45.746349,-33.039055,-0.871224,0.107289,-0.453306
928785210,-81.016632,29.566956,-39.477505,-1.140898,-0.245492,-0.133919
928805215,-84.722710,35.392857,-24.358650,-1.073677,-0.613351,-0.196903
928825219,-63.043995,23.488575,-20.604094,-0.809068,-0.414797,-0.114647
928845223,-48.809795,15.740412,-10.655144,-0.965221,-0.410368,-0.140095
928865228,-24.034302,15.084532,-12.746808,-1.144888,-0.430584,-0.052383
928885231,1.067471,10.717558,-10.227567,-1.039524,-0.212258,-0.086241
928905236,1.450420,9.606304,-7.593202,-0.987518,-0.085840,-0.147557
928925241,-20.267796,9.920225,-8.681850,-0.988311,-0.093258,-0.094346
928945245,-29.798790,7.931242,-2.785329,-1.054146,-0.208147,0.029809
928965250,-16.881140,6.686109,-1.602956,-1.046853,-0.247034,0.057232
928985255,3.977744,4.237118,-5.307534,-0.979666,-0.133864,0.062303
929005259,8.796021,3.044683,-9.171934,-0.981892,-0.009623,0.050833
929025264,3.458309,3.878552,-9.966500,-0.997178,0.014090,0.100566
929045270,7.034773,3.936595,-11.385294,-0.997065,-0.009170,0.117542
929065274,10.309103,3.106662,-14.477189,-1.006867,0.024164,0.140737
929085279,9.398928,2.890569,-15.676882,-1.004771,0.097022,0.152110
929105284,3.117085,3.522014,-16.187656,-1.014437,0.090032,0.139294
929125288,-0.508454,5.219145,-17.441181,-1.020342,0.034670,0.121452
929145293,-0.995708,7.126960,-19.657209,-0.968140,0.012673,0.149499
929165296,-0.545538,9.314020,-22.065826,-0.953853,-0.031007,0.175023
929185301,1.337392,9.311810,-24.875748,-0.997530,-0.066729,0.147981
929205305,0.912756,9.939038,-26.162233,-1.006369,-0.079025,0.118772
929225310,-3.010611,10.060137,-27.209036,-0.979636,-0.106340,0.073959
929245314,-4.617459,8.771357,-29.884121,-1.029681,-0.031288,0.022405
929265319,-7.199227,8.928770,-33.016251,-1.045183,0.051726,0.066280
929285324,-8.711119,9.532872,-36.693577,-1.006139,0.056065,0.177650
929325335,9.766205,11.453849,-44.068233,-0.979969,-0.047282,0.331589
929345340,25.553083,24.540651,-42.582832,-0.944874,0.030595,0.345270
929365344,8.993888,35.792847,-47.531677,-0.932151,-0.032130,0.246642
929385348,-12.452110,47.050171,-47.167294,-1.033909,-0.250361,0.129432
929405353,-25.031609,39.696293,-34.868481,-1.066389,-0.483782,-0.087578
929425357,-14.192259,25.210428,-19.032530,-1.012615,-0.727896,-0.282017
929445361,18.299000,-1.114587,-0.293406,-0.927252,-0.841768,-0.228990
929465366,36.196735,-27.621923,27.251505,-0.825013,-0.511187,-0.099026
929485371,23.943756,-43.068016,51.707363,-0.889659,-0.202286,0.059981
929505375,-0.280729,-53.250416,63.707272,-1.043102,-0.163581,0.130114
929525379,-6.246479,-55.749840,60.254898,-0.972780,-0.219417,0.120581
929545384,-3.581393,-51.134632,52.431622,-0.801979,-0.197551,0.092906
929565389,-4.205231,-36.052574,36.971275,-0.791865,-0.129886,0.048416
929585395,-12.578695,-23.884781,16.107134,-0.837207,-0.237082,-0.017196
929605400,-8.165804,-12.856000,-3.640926,-0.743668,-0.437483,-0.209194
929625404,16.385040,15.185546,-21.010658,-0.714281,-0.555409,-0.314973
929645419,61.601738,37.520718,-23.419943,-0.963476,-0.386421,-0.087063
929665414,66.843277,17.929243,-0.101704,-1.381919,0.097178,0.071862
929685418,8.887444,9.609271,0.598587,-1.486049,-0.109297,0.237860
929705421,-6.573780,11.400437,-5.930439,-0.859422,-0.740375,0.248586
929725426,17.212841,-6.806745,2.279244,-0.707541,-0.344806,0.205703
929745430,-11.198360,-7.752656,6.113688,-0.980350,-0.042551,0.098824
929765435,-38.586018,-4.965478,10.803152,-1.107057,-0.098119,-0.000671
929785439,-29.685331,-2.870682,14.530074,-0.957533,-0.252725,-0.061518
929805444,-3.995507,-1.671965,8.600047,-0.937122,-0.247304,-0.008633
929825449,12.341129,0.493227,3.697236,-1.001515,-0.128856,0.151795
929845454,14.717923,1.342247,0.853584,-0.993171,-0.055133,0.224789
929865460,9.389332,2.852756,0.924236,-0.960624,-0.058230,0.205656
929885464,5.753166,2.078060,1.113800,-0.984655,-0.062710,0.143903
929905469,2.844647,1.194910,1.921561,-1.011006,-0.040577,0.083429
929925473,-2.706507,1.479131,1.618822,-1.000875,-0.066915,0.051430
929945478,-6.146408,1.534254,0.669841,-0.987385,-0.136326,0.044930
929965488,-5.374818,1.144965,-0.088556,-0.990168,-0.188146,0.066405
929985493,-2.343062,0.446659,-0.666819,-0.992211,-0.190823,0.077580
930005497,-3.399459,0.030087,-0.251220,-0.985935,-0.156766,0.081817
930025502,-6.813306,-0.084933,0.145728,-0.989709,-0.144936,0.087406
930045507,-6.448454,-0.160384,-0.050850,-0.987066,-0.145158,0.086137
930065511,-2.957848,0.771866,-0.793262,-0.982468,-0.149121,0.098532
930085516,1.209994,2.027952,-1.723634,-0.978415,-0.153857,0.108298
930105521,7.000204,3.029722,-3.253276,-0.978894,-0.154213,0.118059
930125527,12.109430,3.425603,-4.373714,-0.967067,-0.135283,0.129814
930145532,12.149392,5.159392,-4.948733,-0.966030,-0.127232,0.133754
930165536,9.718512,5.017504,-4.850970,-0.987732,-0.135856,0.121868
930185541,6.576644,3.608533,-3.315332,-0.993084,-0.176988,0.094163
930205545,0.733490,3.566082,-0.912382,-0.975236,-0.199516,0.083613
930225550,-4.017252,3.508537,0.215977,-0.969658,-0.216892,0.073125
930245553,-6.293510,3.439261,1.033200,-0.977703,-0.222285,0.073225
930265558,-6.851452,2.813645,2.063788,-0.981207,-0.209008,0.083435
930285562,-3.864274,1.622731,2.612939,-0.986772,-0.215470,0.071069
930305567,0.574725,1.416173,2.715193,-0.982959,-0.205835,0.059025
930325572,4.742328,1.467388,2.608867,-0.982328,-0.187969,0.063858
930345577,7.785892,2.033669,2.673901,-0.972734,-0.200106,0.062933
930365581,15.707231,4.471619,1.855090,-0.966389,-0.237390,0.069444
930385588,27.047482,7.102771,1.042103,-0.960725,-0.277685,0.089054
930405592,39.125336,8.699893,0.780798,-0.952951,-0.263271,0.110104
930425597,42.733585,7.546021,0.291948,-0.988680,-0.171960,0.049940
930445601,34.539005,8.067766,1.466408,-1.026443,-0.070956,0.069442
930465606,14.348341,5.733666,3.549942,-0.994725,-0.052529,0.065732
930485610,0.468955,2.576919,4.273418,-1.005784,-0.053356,0.037928
930505613,-10.134321,0.338346,4.805947,-0.994772,-0.021215,0.038290
930525618,-19.284561,-0.803057,4.435023,-0.991286,-0.053872,0.072510
930545622,-23.216064,0.211165,3.006104,-1.003176,-0.128616,0.078122
930565627,-19.890839,1.358273,0.806126,-1.000073,-0.135063,0.059658
930585631,-14.095890,2.356734,-1.522078,-1.010615,-0.073679,0.031407
930605636,-16.260189,1.169801,-2.940101,-1.033157,-0.042575,0.043053
930625641,-22.354183,-0.419481,-2.551892,-1.013800,-0.100086,0.048808
930645645,-24.602173,-0.022344,-1.789477,-0.981347,-0.174836,0.105986
930665652,-25.650463,0.094763,-1.778284,-0.969222,-0.168442,0.159753
930685656,-28.239088,0.545730,-4.196127,-0.965453,-0.096680,0.195037
930705661,-32.715675,-0.073704,-7.930819,-0.970948,0.017190,0.195262
930725665,-42.557060,-1.795224,-12.698524,-0.994027,0.115299,0.157859
930745670,-55.748325,-3.015272,-17.855124,-1.013941,0.164643,0.094559
930765673,-64.265495,-3.029832,-23.852324,-1.020452,0.133767,0.038199
930785678,-64.510048,-2.447507,-30.617302,-1.028548,0.096655,0.025452
930805683,-61.579327,-4.888297,-38.125156,-1.013345,0.122838,0.052379
930825687,-58.046303,-6.553031,-47.318752,-1.040094,0.272422,0.154326
930845692,-55.158733,2.870199,-59.620930,-1.052411,0.405653,0.197454
930865696,-46.804268,20.908073,-72.201828,-1.026586,0.387247,0.467818
930885701,-53.641422,39.980320,-87.900467,-1.018218,0.090096,0.412983
930905706,-64.004601,51.343601,-106.718979,-1.365625,-0.102075,-0.036196
930925712,-92.121964,34.899139,-115.348969,-1.709107,0.069248,-0.348455
930945716,-152.707794,-5.583467,-99.789886,-1.386772,0.070130,-0.530778
930965721,-206.815063,-31.499535,-83.393204,-0.992418,-0.006948,-0.593082
930985725,-274.460480,-62.101151,-62.853687,-0.878885,-0.053115,-0.676879
931005730,-349.088287,-104.143585,-28.389202,-0.838726,0.085145,-0.791605
931025735,-405.812103,-128.084152,6.415695,-0.733831,0.101691,-0.980899
931045738,-425.819305,-157.683990,29.706381,-0.813453,-0.245852,-1.080038
931065743,-379.805084,-181.441650,22.376095,-0.944684,-0.808180,-1.056979
931085747,-262.810394,-207.608749,9.585530,-0.846630,-1.011321,-0.900826
931105752,-163.118286,-216.145721,5.541018,-0.833894,-0.681996,-0.626443
931125757,-139.591949,-213.740738,23.723776,-0.838194,-0.308596,-0.200542
931165766,-364.772491,-215.817474,92.059708,-0.987893,0.500953,-0.208021
931185771,-487.519073,-206.271027,96.543999,-1.053580,0.061231,-0.618434
931205777,-537.877136,-196.268326,95.186073,-1.069385,-0.430430,-0.801988
931225782,-525.164062,-202.133514,87.226738,-0.973637,-0.499246,-0.889905
931245786,-431.750549,-158.003479,51.959595,-0.845895,-0.906065,-0.517501
931265791,-296.835266,-107.621323,24.197273,-0.613061,-1.028116,-0.309953
931285795,-157.736145,-48.841618,15.320853,-0.454688,-0.814514,-0.308731
931305798,-83.887291,-6.452240,-1.038896,-0.709895,-0.608421,-0.368134
931325803,-44.718819,4.516913,-3.882657,-0.896793,-0.448565,-0.367066
931345807,-28.200285,-4.043809,1.007562,-0.952780,-0.186228,-0.283318
931365812,-39.780216,-14.810771,13.379618,-1.035274,-0.023629,-0.110593
931385817,-71.863571,-18.068539,33.932594,-1.063855,-0.052396,-0.234491
931405821,-92.247803,-5.413029,45.521698,-1.006481,-0.327712,-0.275396
931425826,-89.843246,-7.105733,49.314541,-0.972906,-0.728358,0.015623
931445831,-60.394150,-9.133480,44.517418,-1.012622,-0.781276,0.472871
931465837,-27.587145,-3.701230,34.699253,-1.218027,-0.252249,0.635239
931485841,-41.079639,1.723563,33.365723,-1.030743,0.100534,0.585705
931505846,-82.964622,3.155415,29.553804,-0.857920,-0.038823,0.151597
931525851,-81.882179,4.675175,20.412739,-1.017456,-0.100254,-0.156418
931545855,-60.456486,5.308162,12.363813,-1.121197,-0.037262,-0.219645
931565863,-54.558048,1.574695,8.531184,-1.083450,-0.064910,-0.092763
931585863,-60.790749,-2.608935,10.479160,-0.981485,-0.238945,0.011655
931605868,-60.028961,-4.924219,13.679722,-0.972943,-0.269593,0.072007
931625872,-56.329735,-8.221525,12.570520,-1.024941,-0.157494,0.045771
931645877,-61.946236,-10.271972,13.658321,-1.026571,-0.096196,-0.017568
931665882,-70.105209,-10.641376,13.822751,-1.005263,-0.235894,-0.064109
931685886,-61.003468,-9.937421,13.883764,-0.973041,-0.346847,-0.031447
931705891,-41.566338,-8.468632,12.439482,-0.961751,-0.251621,0.038013
931725895,-28.680471,-8.911617,7.962779,-0.993729,-0.089941,0.101961
931745901,-37.034641,-9.696671,7.721055,-0.972123,0.045900,0.135506
931765906,-48.996414,-10.036402,4.943147,-0.985646,0.039237,0.095783
931785911,-46.147499,-10.854650,1.501546,-1.012368,-0.022111,0.042936
931805915,-36.952202,-9.707634,-0.501000,-1.014456,-0.099234,0.017154
931825920,-28.335434,-8.764518,-1.184568,-0.991193,-0.144846,0.015469
931845923,-22.729553,-8.522251,-1.233835,-0.996032,-0.177588,0.023606
931865928,-21.266468,-10.025256,-0.321654,-1.003519,-0.228921,0.031116
931885932,-15.309999,-10.679365,-3.014054,-1.011247,-0.236634,0.004733
931905937,-3.360510,-10.311718,-6.357696,-1.010155,-0.209560,-0.011681
931925942,10.420196,-9.022429,-10.976290,-0.997609,-0.161772,-0.008446
931945946,27.787798,-7.635890,-16.793419,-1.055907,-0.116690,0.059305
931965951,41.579758,-3.589716,-18.688440,-1.005566,-0.158177,0.225506
931985956,48.388004,3.945415,-19.049944,-0.875848,-0.107341,0.310788
932005962,49.699749,4.492341,-21.523726,-0.970381,-0.015171,0.358480
932025966,31.251036,5.655830,-22.742210,-1.067858,0.036003,0.233870
932045971,-13.092268,5.786553,-20.164215,-1.149360,0.126671,0.149502
932065976,-74.061539,-3.023957,-16.077187,-1.126972,0.094656,0.080437
932085980,-130.492279,-14.615278,-13.131010,-0.974186,-0.180984,0.023520
932105983,-159.961014,-24.888342,-5.507029,-0.891427,-0.453874,-0.039284
932125988,-152.377502,-26.378761,-1.664338,-0.855359,-0.639118,-0.115238
932145992,-110.347458,-22.972240,-4.124668,-0.810069,-0.718240,-0.107460
932165997,-56.854908,-18.230656,-6.591168,-0.765823,-0.621381,-0.065800
932186002,-26.717949,-15.461379,-4.407880,-0.776196,-0.453584,-0.035955
932206006,-22.444878,-17.493767,0.020964,-0.827890,-0.356441,-0.071095
932226011,-34.247650,-27.439760,9.642336,-0.809266,-0.367312,-0.074132
932246016,-32.344814,-25.490643,18.090034,-0.774386,-0.331363,0.019267
932266022,-20.852737,-32.923752,24.392300,-0.789639,-0.340549,0.098936
932286026,-20.332306,-20.718449,31.054708,-0.894385,-0.339105,0.137523
932306031,-0.444265,-5.497155,20.445385,-1.353832,-0.209992,0.182913
932326036,12.365557,-7.455827,13.874643,-1.695702,-0.268425,0.452085
932366045,-16.898712,-9.412626,16.571003,-0.557396,-0.006204,0.276393
932386048,-32.235012,-12.351753,10.734888,-0.916224,0.063386,0.194662
932406053,-53.640068,-13.540183,12.107857,-1.117284,0.058769,0.061305
932426057,-54.242645,-8.472505,15.871559,-0.988446,-0.168614,-0.007657
932446062,-25.892149,-3.234642,14.347853,-0.924993,-0.378995,0.038558
932466067,6.846815,3.130710,8.300681,-0.947529,-0.339107,0.111382
932486071,18.738152,2.886559,5.027932,-0.999564,-0.163147,0.175927
932506076,10.318716,-0.950372,6.573820,-1.013302,-0.102548,0.191177
932526081,0.310786,1.529643,8.233074,-0.970624,-0.149226,0.139576
932546087,0.629771,4.226208,5.293361,-0.961067,-0.169480,0.093503
932566092,10.121473,6.344401,1.085482,-0.980296,-0.184814,0.058691
932586096,19.869658,8.125073,-0.016008,-0.972288,-0.162868,0.075212
932606100,25.291098,8.853699,-0.580141,-0.977295,-0.151455,0.101412
932626105,25.088682,7.302257,-0.093838,-0.984808,-0.173481,0.109419
932646108,18.832226,4.539823,1.585175,-0.985886,-0.172764,0.103842
932686117,2.858891,-0.035938,3.832860,-1.002547,-0.174651,0.094833
932706122,-3.604997,-1.893485,4.524986,-0.984231,-0.180241,0.078468
932726127,-3.119074,-0.756294,3.388078,-0.986883,-0.158700,0.094254
932746132,-0.828168,-0.413954,2.014830,-0.981832,-0.128725,0.107599
932766136,0.203577,0.030165,0.899993,-0.984696,-0.113097,0.122411
932786141,0.697710,0.281912,0.152787,-0.983445,-0.116881,0.124131
932806147,2.733957,-1.703108,0.317995,-0.990671,-0.139801,0.123404
932826152,3.892353,-1.389981,0.646027,-0.989424,-0.153921,0.101539
932846156,3.346024,-1.245876,1.020656,-0.985752,-0.170971,0.088489
932866161,2.403255,-0.768909,1.006297,-0.980360,-0.185077,0.087689
932886165,1.827725,-0.330762,0.407397,-0.975420,-0.174826,0.103623
932906170,1.839067,-0.959733,-0.055258,-0.982183,-0.157630,0.113840
932926173,1.208954,-1.262391,-0.347294,-0.981823,-0.140054,0.117585
932946178,1.870971,-1.482172,-0.670622,-0.979187,-0.142880,0.112905
932966182,2.114114,-1.313035,-0.751475,-0.978493,-0.151130,0.108607
932986187,2.500251,-0.419027,-1.399320,-0.983224,-0.146205,0.118073
933006191,4.457448,-0.565023,-2.103786,-0.981809,-0.152959,0.121039
933026196,5.588643,0.104033,-2.582157,-0.979383,-0.142369,0.120644
933046201,6.655622,0.457923,-3.370432,-0.983067,-0.151684,0.116179
933066205,8.025954,-0.938671,-2.502434,-0.986685,-0.165432,0.112352
933086211,5.233861,-0.575214,-1.821303,-0.974819,-0.176684,0.115787
933106216,2.961884,0.120464,-2.792982,-0.972046,-0.164499,0.127759
933126221,0.289062,-0.159554,-2.515598,-0.977144,-0.139743,0.144936
933146225,-3.785382,-1.187402,-1.982885,-0.974395,-0.139054,0.139090
933166230,-6.028282,-1.763339,-1.667019,-0.986019,-0.158747,0.115864
933186233,-6.244863,-1.931201,-1.312886,-0.981893,-0.195031,0.098010
933206238,-6.170513,-1.867842,-0.880920,-0.970910,-0.202821,0.097179
933226242,-5.311419,-0.969447,-1.050680,-0.981510,-0.204073,0.109135
933246247,-1.923925,-1.205389,-1.218212,-0.979836,-0.194976,0.115789
933266252,-0.067843,-0.806444,-1.328921,-0.972365,-0.176934,0.117710
933286256,1.160874,-0.893016,-1.571603,-0.980685,-0.168401,0.110688
933306261,2.129780,-0.840592,-1.178694,-0.982680,-0.184856,0.108104
933326265,2.673830,-0.531318,-1.029595,-0.973505,-0.188290,0.111649
933346272,2.502633,-0.525444,-1.247029,-0.977235,-0.185837,0.115424
933366276,2.471732,-0.349611,-1.224053,-0.974299,-0.179671,0.121046
933386281,2.377354,-0.006390,-1.329583,-0.973686,-0.166107,0.123779
933406286,2.545065,-0.457422,-1.491302,-0.982868,-0.164609,0.118631
933426290,3.191699,-0.651924,-1.236458,-0.982378,-0.177987,0.111702
933446295,3.342748,-0.825445,-0.850975,-0.975712,-0.190275,0.116246
933466298,3.051675,-1.362946,-1.019364,-0.975191,-0.195281,0.115528
933486303,3.701158,-0.494788,-0.850641,-0.975855,-0.178551,0.126947
933506307,3.002791,-0.269350,-0.960128,-0.972445,-0.151030,0.134778
933526312,2.009186,-0.511432,-0.956716,-0.978023,-0.156798,0.130239
933546317,1.653791,-1.101420,-0.796818,-0.977737,-0.172068,0.128636
933566321,1.904750,-2.254238,-0.631456,-0.983295,-0.190408,0.125994
933586325,1.762929,-3.200752,-0.033562,-0.977814,-0.183731,0.135347
933606331,0.086191,-2.620184,0.010818,-0.970972,-0.171000,0.120144
933626337,-0.229808,-0.907617,0.278827,-0.976258,-0.168561,0.127472
933646341,-1.635911,-0.250624,-0.016491,-0.971235,-0.185957,0.120539
933666346,-0.825094,-0.315445,-0.038694,-0.978562,-0.193737,0.119321
933686351,-0.858117,-0.918774,0.199023,-0.977950,-0.199786,0.116254
933706355,-0.534024,-0.732510,0.458867,-0.972580,-0.197299,0.124689
933726358,-0.807334,0.481629,0.354608,-0.973841,-0.176753,0.126731
933746363,-1.223551,0.945543,0.239448,-0.973915,-0.152716,0.136269
933766367,-2.137358,1.399173,0.095336,-0.975348,-0.148178,0.135993
933786372,-1.576012,0.698593,0.132351,-0.980088,-0.171646,0.121513
933806376,-1.360484,0.677137,0.227340,-0.975753,-0.181980,0.113615
933826381,-1.685861,1.034026,0.011911,-0.974951,-0.183063,0.118926
933846386,-2.080115,0.795818,0.217343,-0.979149,-0.184676,0.118680
933866390,-2.917759,1.022467,0.566663,-0.975331,-0.183865,0.124321
933886396,-3.012457,1.197156,0.393081,-0.975333,-0.183752,0.125504
933906401,-2.877740,1.350014,0.207773,-0.979460,-0.174219,0.119925
933926405,-3.306465,1.562103,0.237900,-0.977152,-0.168334,0.120082
933946410,-4.070819,1.374695,0.237018,-0.977328,-0.165155,0.125031
933966415,-4.377994,0.982320,0.045778,-0.978879,-0.165983,0.123952
933986430,-4.223369,0.677382,0.089288,-0.977267,-0.171537,0.123338
934006422,-4.075468,0.395671,0.208913,-0.978034,-0.179846,0.120224
934026427,-3.950325,0.205775,0.366767,-0.976896,-0.189988,0.116694
934046432,-3.529885,0.177183,0.336372,-0.975428,-0.189809,0.112225
934066437,-3.564946,0.246915,0.595407,-0.977795,-0.189809,0.111493
934086441,-3.489839,0.323414,0.510217,-0.977227,-0.184484,0.115032
934106446,-3.290739,0.309174,0.521837,-0.981240,-0.184987,0.115949
934126450,-2.854764,0.211833,0.491317,-0.975977,-0.171207,0.117224
934146455,-2.628121,0.235047,0.281818,-0.982074,-0.171323,0.114028
934166461,-2.108032,0.344828,0.302528,-0.980272,-0.176954,0.109404
934186466,-0.496933,0.466864,0.105650,-0.979172,-0.193984,0.106197
934206470,1.755910,0.729686,-0.118429,-0.977282,-0.197020,0.109270
934226475,2.545838,0.565883,-0.010748,-0.980294,-0.179990,0.111928
934246480,2.248035,0.227691,-0.057795,-0.983005,-0.175889,0.112114
934266483,2.000194,0.281481,0.304007,-0.972951,-0.184654,0.116955
934286487,2.527760,0.092667,0.234006,-0.974692,-0.186646,0.116629
934306492,2.632102,0.299033,0.079546,-0.980722,-0.172815,0.117069
934326497,2.230524,0.344156,0.383326,-0.977726,-0.173788,0.119280
934346502,0.713367,0.062500,0.700533,-0.976263,-0.171755,0.121702
934366506,-0.421098,0.247434,0.576256,-0.980285,-0.175499,0.119130
934386510,-0.719264,0.100520,0.551594,-0.978647,-0.174453,0.122210
934406516,-1.287551,0.250068,0.424705,-0.977956,-0.164664,0.122012
934426522,-1.208524,0.067526,0.568171,-0.983379,-0.177704,0.111968
934446526,-0.803314,0.222620,0.590868,-0.976012,-0.178975,0.114192
934486538,0.149094,0.157329,0.284721,-0.979733,-0.177364,0.111875
934506540,0.500372,0.281406,0.270446,-0.976898,-0.173866,0.115454
934526544,0.577660,-0.008876,0.254492,-0.976342,-0.173002,0.113340
934546548,0.171224,0.072968,0.200860,-0.976349,-0.173988,0.113998
934566552,-0.058991,0.063920,0.144230,-0.979904,-0.173182,0.117077
934586556,0.102088,-0.042310,0.149147,-0.981994,-0.172652,0.115696
934606561,-0.051728,-0.028035,0.091075,-0.978453,-0.175513,0.114209
934626566,0.138637,0.125767,0.064449,-0.977437,-0.173557,0.112438
934646571,0.114056,0.278244,-0.019101,-0.978822,-0.175757,0.115581
934666575,0.281777,0.171729,-0.090351,-0.980826,-0.176118,0.115039
934686580,0.620801,0.028751,0.055902,-0.979201,-0.178093,0.116631
934706586,0.540503,0.287443,-0.163761,-0.975793,-0.170462,0.118303
934726591,0.149882,0.277660,-0.202262,-0.979536,-0.173026,0.115889
934746595,0.523150,0.531695,-0.255256,-0.980922,-0.177596,0.113610
934766600,1.379815,0.275693,-0.331090,-0.980407,-0.183308,0.113910
934786604,1.199249,0.314015,-0.092150,-0.979115,-0.181284,0.111044
934806608,0.855156,0.381224,-0.063232,-0.978298,-0.181350,0.112596
934826612,0.938348,0.274161,-0.163361,-0.978546,-0.174543,0.117471
934846617,0.290368,0.103167,-0.037118,-0.976134,-0.165439,0.120024
934866621,-0.277283,0.214639,-0.125909,-0.981987,-0.169568,0.120466
934886626,0.044476,0.116888,-0.116329,-0.975911,-0.173644,0.122653
934906631,0.304700,0.582837,-0.563189,-0.975419,-0.166082,0.124597
934926635,0.615168,0.346074,-0.864876,-0.982514,-0.165565,0.120930
934946640,0.079593,0.580669,-0.810042,-0.978868,-0.165987,0.118938
934966646,-0.085238,0.723975,-1.088741,-0.976776,-0.168542,0.114069
934986650,-0.284390,1.013809,-1.032547,-0.977089,-0.175406,0.115485
935006655,-0.116813,1.006774,-1.088811,-0.978455,-0.176734,0.112046
935026659,-0.618054,0.859928,-0.851223,-0.976275,-0.179163,0.108998
935046665,-0.982028,0.943317,-0.586237,-0.977228,-0.188480,0.105267
935066669,-0.682801,0.929798,-0.523207,-0.976443,-0.195201,0.105040
935086672,-0.248073,1.046421,-0.592215,-0.976527,-0.190889,0.112337
935106677,0.218934,0.880471,-0.607935,-0.978373,-0.178169,0.112896
935126682,0.186902,0.918136,-0.706298,-0.974215,-0.164270,0.120094
935146686,0.298040,0.848656,-0.997136,-0.979670,-0.163766,0.116247
935166691,0.797685,1.194041,-1.303588,-0.977505,-0.168434,0.114704
935186695,2.284008,1.429532,-1.650548,-0.980198,-0.180135,0.109104
935206700,2.767609,1.440159,-1.522484,-0.981863,-0.186455,0.105402
935226705,2.824642,1.418580,-1.264915,-0.976557,-0.198703,0.106844
935246711,2.487459,0.829603,-0.884817,-0.980017,-0.199365,0.104391
935266716,2.056199,0.583943,-0.587439,-0.978929,-0.200849,0.102964
935286720,1.999918,0.447406,-0.251502,-0.974817,-0.196700,0.107808
935306725,1.623195,0.087496,0.090771,-0.977324,-0.188521,0.107820
935326729,0.903822,0.305786,0.126170,-0.977460,-0.177057,0.114424
935346732,0.874548,-0.015490,0.142643,-0.977891,-0.171562,0.117047
935366737,0.486999,-0.185060,0.294565,-0.978654,-0.180476,0.110754
935386741,0.369209,-0.025844,0.106229,-0.976995,-0.176951,0.110593
935406746,0.307718,0.004376,0.092069,-0.979005,-0.177175,0.112510
935426751,0.100978,0.248256,0.140901,-0.976320,-0.184556,0.116311
935446755,0.092072,0.117665,0.012082,-0.980227,-0.182336,0.117355
935466760,-0.105131,-0.326837,0.024285,-0.981815,-0.176138,0.108930
935486765,-0.431322,-0.488392,0.190282,-0.980620,-0.178341,0.098400
935506771,-0.721598,-0.183495,0.301331,-0.979839,-0.183608,0.103067
935526775,0.267584,0.057169,-0.036599,-0.976857,-0.185590,0.109493
935546780,1.132645,-0.298081,-0.081941,-0.981919,-0.176495,0.113951
935566784,0.498185,-0.247549,-0.032495,-0.979333,-0.169032,0.116082
935586789,-0.644272,-0.108698,-0.194545,-0.975352,-0.174328,0.115465
935606815,-0.147769,0.069665,-0.203980,-0.980502,-0.183846,0.114194
935626797,0.478181,0.325053,-0.238759,-0.974843,-0.182742,0.111991
935646801,0.561589,0.271650,-0.308596,-0.979651,-0.179851,0.109920
935666806,-0.247913,0.160809,-0.232785,-0.979107,-0.179832,0.111105
935686811,-0.858832,0.242270,-0.130605,-0.977553,-0.177991,0.112984
935706816,-1.118912,0.110809,-0.163599,-0.978661,-0.180893,0.112677
935726820,-0.689295,0.105714,-0.072540,-0.978480,-0.182590,0.109339
935746825,-0.352064,-0.129709,-0.085742,-0.978931,-0.181295,0.110497
935766829,-0.430736,0.037635,-0.206366,-0.978212,-0.182454,0.111798
935786835,-0.522816,-0.077758,-0.257661,-0.980676,-0.184296,0.109553
935806840,-0.259955,-0.167425,-0.072122,-0.979497,-0.184830,0.110477
935826844,0.082585,0.009855,-0.154801,-0.975289,-0.182544,0.107974
935846849,0.119254,-0.059361,-0.292193,-0.979372,-0.179908,0.107004
935866854,0.043765,-0.113015,-0.229861,-0.978743,-0.180782,0.108937
935886857,0.127623,-0.150962,-0.261718,-0.978135,-0.185175,0.111854
935906862,0.671588,-0.193884,-0.210676,-0.978804,-0.191357,0.110885
935926866,0.719276,-0.277292,-0.097285,-0.977661,-0.182492,0.109976
935946871,0.213977,-0.096238,-0.080903,-0.976562,-0.180173,0.113030
935966876,0.382435,0.019504,-0.038602,-0.974133,-0.186476,0.111429
935986880,0.748563,0.243039,-0.060979,-0.977227,-0.184868,0.113945
936006885,1.061769,0.144960,-0.119684,-0.976566,-0.181374,0.111869
936026890,0.857212,0.136897,0.028542,-0.976484,-0.182245,0.113802
