Timestamp (us),Gyroscope X (deg/s),Gyroscope Y (deg/s),Gyroscope Z (deg/s),Accelerometer X (g),Accelerometer Y (g),Accelerometer Z (g)
917418209,1.013036,0.755306,0.729441,0.903545,-0.036132,0.439224
917438268,1.173203,0.763147,0.820780,0.903754,-0.034866,0.439027
917458328,1.005686,0.831555,0.927866,0.902336,-0.030804,0.435483
917478388,1.203268,0.580382,0.591635,0.898681,-0.029424,0.437750
917498449,1.142096,0.458549,0.538109,0.902354,-0.029797,0.441370
917518509,0.615724,0.244863,0.355327,0.898411,-0.025431,0.442312
917538569,0.134874,0.000620,-0.018219,0.892202,-0.029099,0.444519
917558630,-0.117045,-0.151968,-0.231724,0.896210,-0.033158,0.445661
917578692,-0.688875,-0.266638,-0.238874,0.897460,-0.029727,0.445541
917598752,-0.956113,-0.586502,-0.323010,0.896641,-0.028597,0.446869
917618812,-1.374768,0.029221,-0.466326,0.910853,-0.025165,0.439557
917638873,-1.946146,0.393754,-0.587026,0.898863,-0.026271,0.441517
917658932,-2.136296,0.675151,-0.494790,0.899906,-0.027072,0.443821
917678992,-1.831414,0.713420,-0.563720,0.898798,-0.031391,0.445412
917699052,-1.824298,0.484957,-0.823423,0.896381,-0.033521,0.445943
917719113,-1.832454,0.020868,-0.816605,0.894369,-0.032176,0.447971
917739173,-1.244896,0.447596,-0.679277,0.895717,-0.034407,0.446580
917759234,-0.650703,-0.137353,-0.337832,0.892629,-0.035752,0.444270
917779294,-0.307941,-0.426051,-0.247233,0.895271,-0.034225,0.446114
917799356,-0.087179,-0.730100,-0.179395,0.897275,-0.034262,0.446154
917819417,-0.262584,-0.798746,-0.186934,0.898811,-0.031313,0.444684
917839477,-0.514050,-0.768512,-0.140825,0.898836,-0.030969,0.443499
917859538,-0.346144,-0.448972,-0.315864,0.897006,-0.035096,0.444891
917879596,-0.506430,-0.479724,-0.506384,0.896504,-0.031980,0.445739
917899657,-0.895267,-0.434580,-0.658368,0.901802,-0.032744,0.444040
917919717,-0.925692,-0.457346,-0.559231,0.900061,-0.033258,0.444014
917939777,-0.994362,-0.594267,-0.460250,0.898301,-0.033750,0.445258
917959838,-1.002139,-0.708415,-0.483321,0.895725,-0.033860,0.446662
917979898,-1.238501,-0.799895,-0.437445,0.894661,-0.034057,0.444555
917999958,-1.284210,-0.837911,-0.361195,0.899381,-0.034034,0.445829
918020020,-1.329738,-0.738963,-0.261826,0.900582,-0.030925,0.442624
918040080,-1.337385,-0.693396,-0.345625,0.900206,-0.033598,0.440117
918060141,-1.352736,-0.754308,-0.383845,0.901019,-0.036018,0.437719
918080201,-1.291508,-0.541226,-0.383542,0.902974,-0.033131,0.438529
918100260,-1.299116,-0.480423,-0.444436,0.902181,-0.030824,0.439567
918120321,-1.603711,-0.290432,-0.352225,0.905378,-0.027187,0.437574
918140381,-1.344173,0.204140,-0.572821,0.902359,-0.031381,0.439125
918160442,-0.985477,0.501280,-0.473582,0.898442,-0.037149,0.437959
918180502,-1.023620,0.280827,-0.229886,0.900264,-0.035976,0.439429
918200563,-1.054227,0.235090,-0.298566,0.904953,-0.033426,0.433942
918220623,-1.100653,-0.054396,-0.680333,0.900803,-0.029772,0.435618
918240684,-1.191934,-0.122698,-0.390549,0.902886,-0.029983,0.436207
918260745,-1.306394,-0.160921,-0.474369,0.900320,-0.031495,0.435363
918280805,-1.138716,-0.145579,-0.512672,0.898641,-0.036428,0.437770
918300866,-0.773227,-0.578781,-0.391849,0.897882,-0.041851,0.439022
918320947,-0.308477,-0.897734,-0.232811,0.902257,-0.039250,0.436252
918340985,-0.071873,-0.798423,-0.027009,0.905690,-0.035762,0.436536
918361045,0.195116,-0.729583,0.102442,0.904391,-0.032841,0.435647
918381106,0.484861,-0.622830,0.064156,0.904791,-0.033623,0.438301
918401166,0.508165,-0.303211,0.133328,0.903760,-0.035522,0.437856
918421227,0.493271,0.016291,0.111030,0.899125,-0.033126,0.439906
918441287,0.493112,0.061737,-0.117677,0.903392,-0.029855,0.439030
918461349,0.348253,0.259158,-0.399327,0.903507,-0.027098,0.440805
918481409,0.241549,0.160274,-0.262103,0.896831,-0.025095,0.438825
918501470,-0.094136,-0.007515,-0.368768,0.900601,-0.024833,0.436988
918521530,-0.544180,0.006957,-0.726642,0.905653,-0.021909,0.437949
918541591,-1.314459,-0.054956,-1.084271,0.906228,-0.019724,0.438743
918561650,-2.473687,-0.337815,-1.380818,0.902053,-0.014562,0.438034
918581710,-3.251971,-0.491294,-2.036022,0.907080,-0.014774,0.430962
918601770,-4.197183,-0.180628,-2.446170,0.904876,-0.017313,0.428961
918641891,-5.974034,-0.259076,-3.214451,0.907126,-0.013631,0.417595
918661952,-6.865469,0.120437,-3.258483,0.913953,-0.014403,0.417197
918682012,-7.909562,0.309619,-3.287416,0.907774,-0.011148,0.419929
918702073,-9.136473,0.810326,-3.574876,0.908177,-0.014713,0.424898
918722134,-9.205244,1.114082,-4.138599,0.906866,-0.021140,0.425338
918742194,-8.801377,1.053548,-4.200194,0.902495,-0.032552,0.428975
918762255,-8.511189,1.426710,-4.093113,0.905333,-0.034656,0.431517
918782314,-8.532816,2.271420,-3.817054,0.906686,-0.031053,0.430850
918802374,-7.920008,4.486334,-3.356303,0.913944,-0.037568,0.419292
918822434,-6.836092,5.461552,-2.944052,0.910865,-0.049678,0.415156
918842495,-5.121315,5.158921,-2.877982,0.908823,-0.052470,0.420064
918862555,-1.903955,4.661028,-1.548084,0.909467,-0.049240,0.423567
918902676,1.216455,4.856643,1.224509,0.908394,-0.055256,0.432632
918922738,3.960725,4.038650,2.424758,0.896020,-0.055963,0.436304
918942798,6.436983,2.801261,2.831457,0.890710,-0.054906,0.439179
918962859,7.343355,1.897101,3.202474,0.894029,-0.043136,0.444960
918982919,7.435369,1.745715,3.979973,0.896878,-0.027820,0.450130
919002978,7.130347,1.502124,4.155309,0.900012,-0.012615,0.454400
919023039,5.681201,1.188341,3.615011,0.899396,-0.003907,0.457609
919043099,3.933723,0.698483,2.159610,0.894575,0.006751,0.463973
919063159,2.026315,0.634184,0.323836,0.893728,0.021258,0.465541
919083219,-0.338153,0.843311,-1.541418,0.894357,0.024127,0.463692
919103280,-2.351818,0.832545,-2.949903,0.891587,0.021428,0.456869
919123340,-4.411429,0.494752,-4.175879,0.891961,0.024741,0.448560
919143402,-7.103171,0.795235,-5.621141,0.898542,0.024388,0.429261
919163463,-9.238962,0.472613,-6.816496,0.910350,0.023171,0.418616
919203583,-12.461727,2.454526,-7.617562,0.918648,0.023743,0.413140
919223642,-12.720177,3.002131,-7.532402,0.920813,0.019461,0.415249
919243703,-12.672342,4.136510,-6.691573,0.917529,0.014237,0.409183
919263763,-12.235335,5.712435,-5.949569,0.922147,0.016581,0.402153
919283824,-11.111162,8.308437,-5.259964,0.924285,0.016395,0.393389
919303884,-9.612253,11.567130,-4.073930,0.924697,0.020507,0.389427
919323944,-7.345584,13.122238,-3.029083,0.909158,0.010378,0.391915
919344005,-4.547456,12.958335,-2.109915,0.900488,0.011951,0.394625
919364067,-1.583455,10.763771,-0.607304,0.896014,0.028278,0.403085
919384127,2.282249,3.921616,0.931801,0.895036,0.005008,0.408704
919404188,2.856120,-3.963759,4.966746,0.890156,-0.035173,0.410520
919424248,-4.981386,-2.627896,9.843925,0.905785,-0.054190,0.461079
919444308,-17.680162,3.880458,10.274644,0.903684,-0.040765,0.489249
919464367,-27.138929,8.241973,5.649172,0.850237,-0.031092,0.474236
919484427,-36.239388,10.240752,-4.181977,0.811445,-0.048372,0.469023
919504488,-42.260902,12.538303,-14.992407,0.896490,-0.065722,0.435379
919524548,-45.573654,12.014034,-19.267717,1.007778,-0.053254,0.402686
919544609,-43.921738,5.819900,-13.827844,1.020695,-0.047877,0.351999
919564669,-40.250278,2.583158,-4.343247,1.017808,-0.091092,0.315761
919584731,-35.671188,-0.067026,5.004034,0.996526,-0.145362,0.288689
919604791,-29.712336,-0.131976,11.189352,0.956951,-0.197798,0.285747
919624852,-21.943390,-1.468202,14.586713,0.917783,-0.212000,0.279116
919644912,-14.587198,-2.433531,16.284563,0.891466,-0.207446,0.271531
919664973,-6.357620,-4.427017,15.821346,0.843494,-0.217348,0.261843
919705092,5.902966,-6.995489,14.665978,0.872196,-0.202595,0.262356
919725152,9.385076,-8.125835,14.591221,0.904094,-0.187520,0.280454
919745213,11.731984,-9.127539,14.952733,0.907661,-0.174799,0.289039
919765273,13.666104,-10.176347,14.109705,0.909040,-0.154634,0.283205
919785334,13.413519,-10.093984,12.882327,0.914027,-0.146447,0.288804
919805394,14.516376,-11.341558,11.849279,0.891450,-0.161722,0.274707
919825456,18.744127,-12.692886,10.575931,0.906751,-0.189184,0.259918
919845516,23.748972,-14.507428,9.453369,0.943281,-0.218632,0.237224
919865577,30.018356,-17.073895,8.404246,0.957786,-0.254108,0.193577
919885637,36.159771,-19.030973,8.340132,1.012755,-0.280425,0.249025
919905696,21.704460,-12.003793,20.952932,1.400637,-0.186864,0.636790
919925756,-6.762087,-5.257223,41.032677,1.281926,0.024928,0.501751
919945817,-1.556511,-21.370153,27.713202,0.881386,-0.106021,0.473412
919965877,8.048266,-14.482723,11.256562,0.988384,-0.288401,0.464900
919985937,30.046516,-31.217834,-1.016236,0.966742,-0.308537,0.537354
920005998,46.312767,-41.309326,-5.026575,0.935479,-0.226564,0.512999
920026058,51.528664,-31.970808,1.946452,0.994379,-0.069657,0.512205
920046120,54.218441,-23.245914,14.610558,0.821198,0.004099,0.555561
920066181,49.854088,-9.538286,25.690300,0.807465,0.025611,0.514989
920086241,42.856991,2.469645,27.466173,0.917039,0.077294,0.469649
920106301,36.313522,2.688573,15.356239,0.942039,0.031057,0.447359
920126360,29.153540,1.319822,-1.994980,0.987316,-0.097755,0.422608
920146421,27.272968,-2.440976,-11.356763,0.985345,-0.159087,0.370148
920166482,26.325947,-1.866052,-14.054312,0.910742,-0.093394,0.335298
920186542,22.592905,6.407881,-14.065804,0.880049,-0.024335,0.317336
920206602,14.136785,15.728816,-12.277689,0.831672,0.019318,0.321860
920226662,7.309668,19.919825,-14.664469,0.808601,0.040384,0.348131
920246723,2.084427,21.180359,-20.360472,0.825384,0.053208,0.344989
920266784,-5.623799,22.744385,-24.321842,0.810623,0.068416,0.345545
920286845,-17.300924,25.507690,-27.162964,0.803085,0.083252,0.326452
920306905,-30.147688,31.587322,-29.600288,0.804807,0.068742,0.303741
920326965,-40.335796,28.267639,-30.188910,0.750338,0.038066,0.317776
920367085,-49.841782,-27.238869,-27.003849,0.724675,0.086066,0.220514
920387145,-49.535633,-34.547825,-24.706350,0.940716,0.011434,0.150955
920407205,-45.301323,-23.528767,-26.217190,1.120346,-0.116215,0.173246
920427266,-33.745201,-21.252768,-28.674894,1.047793,-0.170515,0.272938
920487448,-29.039434,-11.481015,-21.624237,1.068576,0.222183,0.210965
920507509,-9.632450,3.469889,-23.924002,1.572566,-0.058290,0.805959
920527569,21.397581,-31.305439,-39.198284,1.267036,-0.519514,0.482893
920547630,17.490726,-31.328947,-27.159512,0.896591,-0.160284,0.444245
920567690,1.444202,-13.989560,-9.005254,1.109077,0.264950,0.647444
920587749,-17.948490,-16.859085,1.765657,0.944375,0.336346,0.634882
920607809,-31.157101,-10.737620,-4.598672,0.775346,0.284268,0.599864
920627870,-28.967783,-1.781351,-22.293581,0.785917,-0.019747,0.586303
920647931,-29.443565,11.134066,-33.732464,0.896662,-0.179400,0.581045
920667991,-29.655056,10.998921,-31.467463,0.964909,-0.128635,0.543168
920688051,-23.252298,3.169364,-13.582474,0.939140,-0.071693,0.469373
920708113,-15.620045,-3.532131,5.332589,0.897776,-0.090993,0.416101
920748234,-7.445294,-6.979266,21.560686,0.805641,-0.149726,0.368722
920768294,0.232109,-6.415761,22.490602,0.735786,-0.139364,0.354736
920788355,8.919330,-5.026735,18.090048,0.730338,-0.112034,0.345293
920808414,17.005735,-3.370996,14.826983,0.805170,-0.142901,0.313389
920828474,25.538164,-6.908860,14.086141,0.827984,-0.201962,0.310785
920848535,34.200665,-16.388639,13.121132,0.768397,-0.229718,0.264644
920868595,44.661919,-25.395702,11.376949,0.755452,-0.225988,0.222464
920888656,55.476471,-37.918144,8.703379,0.757163,-0.182292,0.176576
920908716,62.738117,-49.707569,4.235520,0.783739,-0.111421,0.140825
920928777,63.190495,-51.292587,0.853770,0.890018,-0.027768,0.181820
920948838,52.175240,-40.254646,2.678452,1.019524,0.075993,0.271266
920968898,38.139225,-18.567808,5.166092,1.059478,0.134527,0.362752
920988959,31.893942,-10.817257,1.023238,0.958138,0.064103,0.313108
921009019,41.725117,-14.008785,-5.224670,0.882258,-0.050075,0.149965
921029078,59.122494,-9.445089,-7.967437,1.148923,-0.215781,0.384724
921049139,28.532103,26.246489,36.394379,1.907318,0.158215,-0.073054
921069199,33.409767,47.838360,66.046936,0.996514,0.304165,1.041636
921089260,18.392643,23.377655,46.605236,1.008239,-0.032233,0.480460
921109320,36.342308,4.593448,35.805481,0.935412,-0.202939,0.692433
921129380,39.811970,3.238106,30.803801,0.860258,-0.122463,0.511308
921149441,33.685390,26.001369,28.967516,1.063330,0.104996,0.578075
921169502,30.055447,24.149691,29.548147,1.007430,0.250850,0.608974
921189563,28.934500,18.456825,19.777866,0.904417,0.128673,0.563754
921209623,27.355623,15.194832,6.328949,0.931024,0.014450,0.508796
921229684,23.012344,13.110598,-5.818158,0.903066,0.058571,0.454869
921249743,16.056490,14.627587,-12.159885,0.818603,0.125897,0.452492
921269803,4.503982,16.200754,-18.862125,0.759103,0.193600,0.462770
921289863,-7.291823,17.120718,-24.070488,0.712042,0.223744,0.466083
921309923,-20.872427,13.538981,-24.838579,0.727930,0.233616,0.475956
921329984,-33.189751,0.419383,-24.069233,0.738528,0.257908,0.433096
921350044,-40.801708,-6.074722,-20.960157,0.783056,0.263621,0.383663
921370105,-43.947300,-8.301983,-15.446591,0.859923,0.175811,0.310660
921390166,-49.589909,-9.616655,-7.663467,0.887758,0.088417,0.267559
921410227,-58.286346,-7.724538,-0.877733,0.922727,0.067292,0.273217
921430287,-67.165901,-10.118576,2.873051,0.926743,0.079821,0.276184
921450348,-69.865173,-14.377747,7.253822,0.878777,0.106009,0.297796
921470407,-57.402424,0.406869,5.045882,1.073252,-0.021172,0.491557
921490467,-42.614513,12.557598,-9.996773,1.310518,-0.401806,0.465347
921510528,-26.227896,4.736968,-18.586617,0.899425,-0.422706,0.444943
921530588,-29.264341,6.281500,-15.194246,0.828586,-0.101272,0.469478
921550648,-29.367016,8.663913,-13.824829,0.908468,0.048427,0.452776
921570709,-28.677666,11.061594,-13.249453,0.853713,0.109132,0.424936
921590769,-23.135649,16.736198,-11.682640,0.849506,0.038715,0.458578
921610831,-13.752214,16.524822,-11.305199,0.852374,-0.058053,0.480247
921630891,-7.248965,16.364985,-9.772691,0.833619,-0.089138,0.482734
921650952,-3.616623,16.645845,-5.787985,0.846901,-0.060449,0.477726
921671013,0.713073,13.032665,-1.139862,0.856667,-0.023102,0.480592
921691094,2.190791,9.833652,1.743086,0.873656,-0.000399,0.464401
921711132,2.876874,7.554492,4.666727,0.885886,0.001011,0.459080
921731193,3.341589,5.168426,7.384532,0.874106,-0.009778,0.453480
921751253,3.128186,3.131569,9.974112,0.867718,-0.020971,0.440546
921771313,2.399317,4.600347,11.251145,0.888870,-0.045767,0.439542
921791373,1.356161,4.744824,12.289804,0.895158,-0.057187,0.449293
921811434,-0.559176,3.502295,11.603523,0.888196,-0.045338,0.448240
921831496,-5.099876,2.033823,7.732193,0.875128,-0.049750,0.474570
921851556,-10.639782,1.065352,2.528338,0.865883,-0.064820,0.482529
921871616,-17.879169,6.585269,-2.234993,0.928639,-0.041931,0.524087
921891677,-23.642916,8.045444,-5.276077,0.930483,0.036460,0.540764
921911737,-26.385172,5.901872,-8.807549,0.833028,0.037571,0.497140
921931796,-25.693201,5.931331,-10.653865,0.821400,-0.038518,0.432555
921951856,-21.792105,3.965190,-9.952716,0.883604,-0.141460,0.346608
921971917,-17.379114,7.069227,-6.116482,0.972651,-0.204301,0.317401
921991977,-17.788769,13.833631,3.954923,1.144083,-0.200652,0.391834
922012038,-20.117512,11.349597,19.350658,1.078172,-0.152267,0.398480
922032098,-23.236876,6.268126,32.073574,0.955802,-0.151356,0.380430
922052160,-21.858612,-0.054742,38.489704,0.972880,-0.183810,0.368389
922072220,-21.414225,-5.363897,39.394966,0.933364,-0.227219,0.366666
922092281,-22.390779,-11.110576,37.448929,0.896085,-0.253454,0.388235
922112341,-24.169691,-13.820431,37.766560,0.896078,-0.256807,0.367038
922152460,-29.535679,-20.489742,38.211109,0.852743,-0.210232,0.361444
922172521,-30.952322,-19.737638,38.503910,0.821971,-0.231762,0.339385
922192581,-31.798996,-25.894285,37.395885,0.800609,-0.272093,0.351866
922212642,-29.576899,-29.589064,38.065472,0.809826,-0.298467,0.313509
922232702,-20.877411,-39.730709,28.481615,0.829352,-0.298252,0.365110
922252762,-20.479424,-40.336418,22.760403,0.785628,-0.310928,0.319133
922272824,-21.367716,-53.609623,26.810459,0.681789,-0.332584,0.365833
922292885,-14.888948,-76.819458,30.880026,0.770151,-0.238924,0.375437
922312945,-6.277299,-79.419304,23.971121,0.909704,-0.267665,0.127912
922333006,-4.500731,-60.807171,34.053196,1.036813,-0.272110,0.047851
922353066,1.575968,-33.450493,34.254379,1.102784,-0.296184,0.119373
922373125,5.636435,-20.613897,32.052963,1.057893,-0.371020,0.197054
922393185,14.825838,-17.902935,25.015467,1.001828,-0.373076,0.201520
922413246,17.664564,-12.774802,13.741950,0.975710,-0.302374,0.172633
922433306,18.752819,-6.483022,3.929172,1.026363,-0.284409,0.177796
922453367,17.867588,4.268198,-2.449230,1.053685,-0.282870,0.180853
922473427,13.613951,13.725010,-6.393154,1.012460,-0.298769,0.234237
922493488,13.328111,12.755968,-9.284863,0.952954,-0.305386,0.267041
922513549,11.112704,9.671403,-10.668023,0.937208,-0.278906,0.232980
922533610,6.884925,7.253664,-12.917011,0.947080,-0.283132,0.214262
922553670,4.439068,12.123583,-17.984594,0.954377,-0.287408,0.167614
922573730,-1.549950,18.663290,-23.731394,0.942498,-0.320401,0.194514
922593789,-1.868043,16.674200,-27.242590,0.905647,-0.337245,0.223297
922613850,0.471019,8.597433,-26.458849,0.896303,-0.311840,0.186564
922633910,2.064086,6.957403,-24.442677,0.906416,-0.285911,0.165099
922653971,5.744019,11.442631,-23.737518,0.951150,-0.276130,0.130772
922674031,1.536345,19.022612,-25.076635,0.973149,-0.314529,0.193845
922694091,8.396326,13.481513,-26.657913,0.921999,-0.298789,0.190768
922714152,8.600760,12.097281,-26.401306,0.903279,-0.298785,0.169693
922734213,17.105377,9.724672,-25.713959,0.942489,-0.294814,0.184843
922754274,18.802179,11.448165,-22.914104,0.966374,-0.280150,0.201972
922774334,20.622404,8.894959,-21.387890,0.921633,-0.253618,0.204117
922794395,21.492615,9.482135,-20.785414,0.915219,-0.251354,0.179707
922814454,22.999752,8.850781,-22.283054,0.905940,-0.257163,0.230381
922834514,28.653269,1.125458,-23.393929,0.886296,-0.234121,0.226084
922854574,31.955408,-4.956797,-22.264629,0.864855,-0.249816,0.226365
922874635,34.463554,-10.471031,-23.200100,0.885637,-0.241716,0.200674
922894695,34.471691,-10.219750,-22.963253,0.925692,-0.233345,0.207779
922914755,36.277328,-17.240543,-23.343828,0.841298,-0.230325,0.217416
922934816,42.581078,-29.834015,-24.059864,0.747528,-0.256765,0.173395
922954878,47.858009,-35.183968,-31.480619,0.776061,-0.290199,0.203098
922974938,48.454441,-33.950150,-39.235023,0.910819,-0.213813,0.244135
922994999,40.428226,-25.970346,-48.927254,1.008376,-0.157033,0.339057
923015059,11.876240,17.311922,-43.562630,1.313896,0.048991,0.414454
923035118,-6.482241,52.588425,-25.778202,1.365112,0.374521,0.583185
923055179,-28.025455,42.587555,-7.093663,1.342156,0.433843,0.518943
923075239,-27.857500,26.621637,5.018946,0.878512,0.078540,0.446165
923095299,-7.701076,16.156759,-3.854570,0.751009,-0.262648,0.470338
923115360,6.506994,9.673007,-12.508107,0.764764,-0.389365,0.377003
923135420,19.942129,4.112073,-9.170671,0.663667,-0.393949,0.320501
923155481,22.013861,6.855278,2.110901,0.784740,-0.174108,0.312030
923175543,15.665172,12.769459,12.081081,0.990692,0.044937,0.329948
923195603,11.550112,5.144589,14.627304,1.049178,0.137596,0.272685
923215664,9.813055,3.396220,9.547212,0.996258,0.089809,0.266045
923235724,11.837492,1.092812,0.808719,0.997502,0.017981,0.275661
923255790,14.351371,-1.109813,-6.328667,0.971502,-0.039023,0.314380
923275843,15.340681,-0.472051,-8.875875,0.942916,-0.020387,0.352478
923295903,15.172734,-0.609242,-8.975060,0.878002,0.009279,0.378059
923315964,17.611660,3.313835,-5.981552,0.863094,0.014828,0.394023
923336025,26.054750,15.485173,0.519817,0.982871,-0.026112,0.431185
923356085,38.564301,25.445135,5.525354,1.024861,-0.069492,0.474390
923376145,48.235943,27.527374,9.681480,0.900762,-0.058427,0.474216
923396207,51.954868,26.876177,17.790230,0.825064,0.038083,0.453111
923416267,52.767056,25.695417,23.804279,0.917137,0.133177,0.460132
923436328,46.798550,28.949888,19.637918,1.050237,0.118336,0.451281
923456388,40.963905,24.047676,5.672569,0.989656,0.049073,0.419223
923476448,40.707153,22.796476,-6.607558,1.084003,0.009775,0.405728
923496507,41.259930,21.471529,-17.127119,1.037084,0.026228,0.401089
923516568,38.671158,23.569633,-24.876226,0.923082,0.066335,0.413547
923536628,34.683399,25.525417,-28.597275,0.903873,0.107938,0.415320
923556689,33.457596,28.147449,-30.360485,0.867719,0.094042,0.408653
923576749,36.739731,24.461765,-29.150681,0.854142,0.088021,0.430639
923596809,30.031967,7.737109,-24.527840,0.724310,0.105808,0.467297
923616871,24.911097,-8.551181,-27.158655,0.692348,0.155390,0.425464
923636931,19.102089,-21.802652,-27.655584,0.756858,0.183018,0.442007
923656992,7.424306,-43.532318,-25.110014,0.700050,0.186251,0.424397
923677052,-3.430851,-56.157852,-26.431116,0.670006,0.192522,0.318451
923717171,-24.326351,-95.732712,-44.840069,0.965085,0.189918,0.210708
923737232,-35.443611,-26.260803,-29.085897,1.159023,0.026145,-0.256449
923757293,-22.000385,-4.357172,-43.293755,1.173817,0.222499,0.206771
923777353,-30.102325,9.656059,-35.351048,0.973292,0.088244,0.041124
923797413,-16.490934,16.459980,-30.085468,1.010653,0.121723,0.281259
923817474,-14.624091,21.460936,-20.645222,0.985097,0.072221,0.224149
923837534,-10.731340,23.460386,-9.252724,1.021793,0.090776,0.342455
923857596,-6.882844,21.646570,0.302807,1.055429,0.102635,0.338661
923877657,-7.960976,20.456478,6.402970,1.095225,0.132784,0.347502
923897717,-1.220951,20.791290,7.829301,1.122489,0.150896,0.362464
923917778,0.635214,22.620651,9.729255,1.128115,0.134496,0.361928
923937837,9.303314,21.968948,11.937065,1.074454,0.134159,0.401468
923957897,10.863574,17.286860,15.274874,1.008069,0.109352,0.338891
923977957,16.438860,17.675196,18.258429,1.001080,0.110026,0.349640
924018078,18.226795,5.887126,21.217382,0.944681,0.122348,0.299018
924038138,20.798817,1.272455,22.273870,0.885993,0.158367,0.336245
924058198,20.728039,-1.047547,22.841831,0.871918,0.145926,0.288669
924078260,17.604914,-7.522982,25.030472,0.850240,0.158402,0.308748
924098321,13.656016,-9.305434,26.808920,0.862305,0.154647,0.255012
924118381,9.660222,-5.663299,28.741888,0.892934,0.173174,0.276844
924138442,4.605737,-6.231180,28.647739,0.892739,0.178063,0.324621
924158501,2.389193,-3.062736,26.406212,0.916975,0.138630,0.289312
924178561,2.379373,1.638946,26.353502,0.900369,0.137448,0.341947
924198621,0.299226,0.604196,28.519995,0.879512,0.119381,0.337011
924218682,-1.043573,4.294789,30.777832,0.890329,0.119613,0.374273
924238742,-4.390859,1.896801,32.714638,0.871519,0.090830,0.394793
924258803,-3.338704,2.764384,31.891283,0.902143,0.078643,0.385875
924278863,-3.805142,1.987393,31.287994,0.880200,0.098209,0.449154
924298925,-8.614820,-9.370099,29.252722,0.803947,0.119031,0.460757
924318985,-17.835905,-17.781216,25.710253,0.794300,0.136763,0.410791
924359106,-23.029270,-23.328190,21.840132,0.884426,0.118671,0.360095
924399225,-18.967310,-25.445415,23.585615,0.925034,-0.008425,0.362287
924419286,-13.733977,-22.328150,24.286520,0.987683,-0.012609,0.384023
924439346,-6.316974,-14.569631,23.071211,1.099010,-0.032256,0.439297
924479467,9.592840,8.473311,4.073166,1.135199,-0.155067,0.425986
924499527,7.279490,2.327807,-8.678353,0.856489,-0.022597,0.433993
924519589,0.456283,7.715676,-8.348091,0.919145,0.109839,0.349660
924539650,-4.669164,8.672649,-4.679739,0.851153,0.154753,0.380568
924579770,-15.225912,7.971157,4.917707,0.814413,0.022591,0.351527
924599831,-15.406803,6.954937,0.180242,0.932103,-0.106675,0.381611
924619890,-18.497244,1.051927,-4.211582,0.981944,-0.120451,0.348032
924639950,-22.629196,2.134222,-6.157090,0.978482,-0.090453,0.337133
924660011,-24.280319,5.258896,-6.881742,0.989582,-0.083072,0.311988
924680071,-24.653143,5.350384,-6.263414,0.984134,-0.092724,0.310763
924700132,-23.117508,8.136620,-5.978152,0.928200,-0.099633,0.324481
924720192,-20.302990,8.353800,-4.303336,0.913301,-0.114392,0.344765
924740254,-16.776245,11.987027,-3.324954,0.932977,-0.135138,0.361467
924760314,-11.658394,15.361477,-4.179209,0.924198,-0.178389,0.387684
924780375,-5.945413,12.657736,-5.006754,0.884606,-0.195278,0.405153
924800435,-2.407894,7.760356,-6.361798,0.865460,-0.166170,0.399589
924820495,-2.283142,4.526063,-7.511582,0.878801,-0.108630,0.384313
924840554,-6.944788,1.067360,-7.786698,0.901275,-0.043600,0.359291
924860614,-14.117278,-4.904469,-8.177662,0.917300,-0.015259,0.347350
924880675,-19.595957,-9.414040,-8.667197,0.928296,-0.023512,0.339434
924900735,-22.876322,-11.919958,-8.408434,0.914374,-0.032538,0.338940
924920796,-23.513815,-9.797621,-8.053130,0.906801,-0.053417,0.349567
924940856,-19.992117,-5.234800,-5.463969,0.885223,-0.049758,0.370243
924960917,-14.872786,0.412988,0.648528,0.846905,-0.038741,0.409632
924980979,-13.053184,3.520174,10.840490,0.817632,-0.027564,0.436030
925001039,-13.661189,9.714267,21.452585,0.891974,-0.036954,0.420392
925021099,-16.356655,15.451798,25.606937,0.960028,-0.043284,0.379154
925041160,-17.290028,8.365207,22.590818,0.904960,0.006775,0.323416
925061218,-23.048702,2.778512,17.424839,0.968211,0.058064,0.267542
925081279,-32.776936,-1.586728,12.647031,1.054179,0.104830,0.228081
925121400,-47.451519,4.668487,-12.979177,1.224101,-0.036375,0.184374
925141460,-49.284409,7.118426,-28.042114,1.154937,-0.084709,0.219651
925161521,-57.510666,7.307068,-38.174908,1.058361,0.009469,0.237312
925181581,-72.087395,9.760737,-43.911110,0.993638,0.121598,0.232430
925201643,-90.303963,12.442493,-45.905731,0.925103,0.146579,0.256652
925221703,-107.347679,12.829334,-46.106010,0.918238,0.141923,0.258861
925241764,-122.129166,13.224322,-48.131622,0.913269,0.149961,0.271622
925261824,-131.871307,9.954667,-52.854095,0.921866,0.151546,0.289202
925281883,-141.921402,9.386929,-56.023319,0.933045,0.159050,0.282583
925301944,-151.119034,14.214134,-59.115410,0.960992,0.157719,0.288877
925322004,-155.817841,20.901373,-62.880657,1.027923,0.160019,0.295066
925342065,-161.559021,21.069353,-64.627586,1.070458,0.150197,0.343558
925362125,-163.376144,27.714083,-67.938751,1.227851,0.038072,0.437450
925382185,-167.339752,29.390247,-78.173126,1.097438,-0.167106,0.425251
925402246,-183.080688,16.555147,-78.932091,0.857228,-0.091090,0.386151
925422307,-195.509033,21.547319,-72.662674,1.024144,-0.002032,0.273055
925442368,-184.812958,30.001833,-73.255295,0.980263,-0.073080,0.278498
925462433,-182.099823,44.070042,-75.002998,0.915714,-0.161747,0.273279
925482489,-174.060272,43.999573,-77.300514,0.944402,-0.227198,0.248644
925502548,-173.675797,29.283810,-79.881699,0.951984,-0.253297,0.268916
925522608,-181.426147,12.529369,-73.404503,0.958787,-0.086008,0.231602
925542669,-187.462784,8.610265,-68.027771,0.977429,-0.001954,0.153347
925562729,-192.114258,5.982712,-74.798981,0.981024,-0.034463,0.111616
925582789,-194.916443,7.009079,-81.199883,0.913611,-0.108306,0.097387
925602850,-187.518570,7.651034,-85.897652,0.888754,-0.185881,0.125831
925622910,-179.207718,5.434783,-88.862755,0.892212,-0.206300,0.160281
925642972,-172.643250,0.016694,-88.674187,0.889116,-0.207995,0.169782
925663032,-166.102570,-1.899257,-85.672958,0.917542,-0.224738,0.185413
925683093,-159.679276,-1.736287,-80.349556,0.965103,-0.245087,0.202750
925703153,-155.050018,2.047014,-74.308395,1.014364,-0.256783,0.250133
925723212,-153.567276,7.698330,-68.900826,1.043446,-0.261353,0.320344
925743272,-152.815750,9.641228,-66.473145,1.019822,-0.266947,0.367735
925763333,-150.311386,4.875403,-64.204269,0.934346,-0.294036,0.387367
925783393,-146.466644,-1.584978,-61.085838,0.890898,-0.277089,0.394503
925803453,-140.232483,-8.784112,-61.418602,0.857149,-0.249719,0.388224
925823514,-131.229279,-12.786837,-63.541168,0.831762,-0.256145,0.377927
925843574,-124.420128,-6.341744,-60.983089,0.922902,-0.193368,0.382721
925863636,-112.495964,9.250398,-61.389175,0.887008,-0.149561,0.405198
925883697,-112.926659,11.373528,-51.745369,0.909412,-0.070315,0.513263
925903757,-122.616020,8.740730,-33.199169,0.928228,0.154975,0.470538
925923818,-126.431953,17.721241,-8.378318,1.049000,0.383053,0.332883
925943891,-109.084473,22.113037,1.034878,1.021252,0.151131,0.256207
925963937,-90.661392,29.607962,-8.986984,1.153038,-0.237177,0.317036
925983997,-78.064842,16.311142,-28.952692,1.087351,-0.321988,0.301653
926004058,-65.984505,11.899052,-41.336903,0.936106,-0.154717,0.341862
926024118,-64.150093,12.429922,-36.609879,0.955285,0.046626,0.364277
926044178,-65.171425,11.167507,-34.933128,0.922648,0.178299,0.317943
926064239,-67.468536,15.060959,-34.542229,0.891003,0.189190,0.291353
926084301,-70.546692,16.966803,-35.488495,0.917194,0.126624,0.284240
926104361,-70.251846,10.627077,-38.375111,0.939577,0.088782,0.288010
926124422,-72.079193,8.279388,-41.419949,0.943472,0.086438,0.310192
926144482,-75.134941,4.812265,-44.343288,0.923327,0.059681,0.325205
926164542,-78.357430,-0.432385,-43.982658,0.909745,0.039271,0.324354
926184601,-85.028000,-4.862481,-39.345810,0.888468,0.063438,0.309200
926204662,-92.680740,-8.745260,-34.173004,0.870964,0.073669,0.280812
926224722,-99.935097,-12.063364,-27.520185,0.868127,0.040660,0.300535
926244783,-103.366745,-7.311091,-26.905268,1.055285,-0.066646,0.373142
926264843,-105.605553,-10.403776,-28.845127,1.020921,-0.191125,0.382258
926284904,-103.344337,-3.040554,-32.762329,1.004655,-0.259186,0.467570
926304966,-96.750168,-4.446825,-38.492294,0.934362,-0.214584,0.405625
926325026,-93.958885,3.749186,-38.999741,0.905809,-0.111312,0.384889
926345086,-86.527802,10.100683,-39.714214,0.953169,-0.106470,0.357504
926365146,-76.411652,7.884630,-35.787354,0.929807,-0.165100,0.306576
926385207,-68.980202,8.628012,-29.053272,1.034357,-0.228123,0.305921
926405266,-63.635792,3.641152,-21.686209,1.036316,-0.272234,0.314473
926425326,-56.980507,-0.045131,-16.171583,0.942722,-0.222357,0.286312
926445387,-46.674049,0.056607,-15.443876,0.917925,-0.201866,0.270421
926465447,-37.334641,-3.245863,-17.565609,0.857371,-0.215599,0.262361
926485507,-29.574347,-6.984196,-20.486992,0.773019,-0.233683,0.255717
926505568,-22.157019,-8.321355,-26.377966,0.758506,-0.211418,0.248719
926525629,-11.143725,-8.957716,-35.162300,0.782280,-0.213097,0.306155
926545690,-7.155867,-5.373322,-38.287460,0.951276,-0.149690,0.497828
926565751,-29.558083,11.946257,-18.493694,1.515622,0.222630,0.514927
926585811,-43.064011,13.939830,4.968856,1.022745,0.395438,0.424616
926625930,-28.600893,-3.908598,-2.080634,0.960810,-0.196782,0.378892
926645991,-18.203529,-12.584108,-7.377977,0.801983,-0.319777,0.352744
926666051,-2.348037,-10.957339,-8.736120,0.758953,-0.293087,0.338846
926686112,1.925603,-7.445440,0.500367,0.889199,-0.115355,0.358108
926706172,2.097821,-1.361667,5.963642,0.968295,-0.005624,0.349837
926726233,-0.859406,2.952030,9.109132,0.984239,0.018848,0.367834
926746294,-3.895672,2.156412,7.410680,1.002769,-0.004263,0.355763
926766355,-3.634319,1.361130,2.543434,1.003892,-0.055984,0.326823
926786415,-2.415497,4.370966,-2.081825,0.976259,-0.061918,0.332638
926806475,-3.391484,7.128388,-5.873668,0.940929,-0.045294,0.362462
926826536,-4.030544,9.173236,-7.112380,0.927694,-0.021552,0.374718
926846595,-3.614665,11.799536,-5.811784,0.898315,-0.030673,0.389359
926866655,-1.544708,12.732697,-2.396043,0.893999,-0.058921,0.392721
926886716,1.086017,11.649367,-0.006435,0.909247,-0.098175,0.396463
926906776,3.875118,9.728620,1.603632,0.916168,-0.087076,0.404323
926926837,5.681951,10.163789,1.373471,0.940723,-0.043363,0.407380
926946897,5.644639,11.129661,1.024411,0.941440,0.007993,0.405395
926966959,6.271840,11.983458,2.275875,0.930165,0.020415,0.401069
926987020,4.435772,11.739443,3.619837,0.887607,0.027919,0.415821
927007080,1.875762,5.666413,4.275647,0.824194,0.020126,0.417054
927027140,0.733612,0.065967,4.412025,0.789273,-0.035382,0.404173
927047201,-2.883117,-0.784496,1.539725,0.766051,-0.095496,0.401131
927067260,-10.004778,4.336326,-7.289229,0.768315,-0.143272,0.397397
927087320,-16.806684,6.691179,-21.294024,0.776607,-0.159630,0.418890
927107380,-25.431402,13.853500,-34.220505,0.878252,-0.063355,0.403741
927127440,-32.621490,23.526220,-40.349293,1.151839,0.095146,0.342046
927147501,-36.538727,13.795780,-27.320959,1.196603,0.100531,0.300524
927167561,-34.677914,5.947738,-8.248550,1.126191,-0.044856,0.264218
927187623,-29.171013,3.387249,6.901349,1.180507,-0.175630,0.230141
927207684,-23.736389,1.393162,17.377455,1.090447,-0.214693,0.213730
927227744,-18.905111,2.558802,22.620626,1.075239,-0.194587,0.201939
927247805,-16.493660,4.433187,23.215918,0.965697,-0.174207,0.220430
927267865,-11.726048,4.965787,18.132139,0.899184,-0.172317,0.204103
927287924,-3.358918,5.480613,14.889608,0.867690,-0.164514,0.210985
927307985,3.973152,5.144833,14.445629,0.877871,-0.142652,0.180233
927328045,12.644738,3.508851,13.425804,0.859875,-0.147075,0.189393
927348105,15.690282,-0.268538,14.429821,0.876975,-0.140609,0.181727
927368165,16.867020,-4.375707,14.459318,0.891894,-0.124720,0.196752
927388226,15.570708,-10.236312,13.077801,0.874399,-0.102160,0.176704
927408288,17.304146,-13.179979,11.918997,0.870990,-0.091802,0.144596
927428348,19.050823,-10.897388,10.258431,0.915426,-0.082713,0.128618
927448409,19.729069,-9.262992,8.033650,0.940930,-0.131877,0.111470
927468469,20.420879,-12.972668,10.710722,0.939497,-0.202417,0.289109
927508588,-35.506115,-5.968321,50.720303,1.012461,0.078763,0.436000
927528649,8.181998,-26.683529,31.063087,0.687866,-0.324955,0.470812
927548709,19.473701,-26.167946,16.919209,1.046334,-0.567087,0.441517
927568770,24.168623,-28.291550,10.763162,1.128641,-0.540150,0.502468
927588830,21.534472,-11.641019,9.796603,1.101333,-0.208877,0.593728
927608890,27.478941,-17.708128,8.001949,1.052576,0.010057,0.551859
927628951,37.694656,-17.879353,9.873215,0.915871,-0.002256,0.543091
927649013,35.667404,-13.374763,12.804405,0.868835,-0.029190,0.511352
927669073,29.817371,-9.470276,12.284388,0.878095,-0.045785,0.470207
927689134,23.282043,-6.272160,5.220634,0.933568,-0.047128,0.441082
927709194,16.489006,-6.499956,-4.190108,0.980635,-0.054594,0.411798
927729253,13.053022,-8.552727,-16.147579,0.980971,-0.075728,0.394070
927749314,12.170706,-8.179041,-22.795946,0.976893,-0.056516,0.362897
927769374,9.757924,-5.928474,-21.782457,0.930495,-0.027904,0.356893
927789434,4.201018,-1.473233,-19.243732,0.908442,-0.026116,0.335451
927809495,0.209626,6.436450,-17.920973,0.909662,-0.036748,0.332103
927829555,-2.499247,11.560498,-19.235691,0.886544,-0.018805,0.339988
927849615,-5.396547,13.487328,-22.454754,0.862835,0.028399,0.350755
927869677,-9.596298,15.672261,-24.916822,0.825047,0.058551,0.332092
927889737,-14.870136,16.846088,-25.366074,0.782268,0.057097,0.338536
927909798,-25.089447,17.401127,-23.370161,0.771523,0.078859,0.305466
927929858,-35.808189,13.901354,-20.557173,0.747501,0.096228,0.288731
927949917,-42.715645,10.268432,-17.550655,0.764544,0.047191,0.253161
927969978,-46.634521,2.687443,-17.216196,0.802859,-0.007647,0.237537
927990038,-44.982452,-10.398664,-19.407076,0.799539,-0.051670,0.239898
928010098,-42.916840,-16.331703,-20.281746,0.870576,-0.070499,0.243871
928030159,-39.054401,-19.210342,-19.017822,0.945051,-0.047665,0.234987
928050219,-32.489883,-19.217861,-17.370724,0.993877,-0.022339,0.237545
928070280,-29.265148,-15.012197,-13.988712,1.053429,-0.036330,0.223959
928090341,-25.942364,-12.205755,-9.976306,1.091870,-0.035978,0.184482
928110402,-24.673229,-10.909012,-7.512252,1.104107,-0.015338,0.137262
928130462,-26.404388,-12.393375,-6.559539,1.086093,0.014282,0.147422
928150523,-5.486865,1.815765,-14.772733,1.533608,-0.186147,0.490559
928170590,23.833519,-8.197695,-30.626688,1.250975,-0.399556,0.346804
928190642,17.668510,-18.597521,-32.269726,0.915803,-0.197902,0.359041
928210702,8.147361,-13.128548,-23.348991,1.069402,0.118099,0.425781
928230763,-8.930595,-6.940279,-10.215976,0.999723,0.223469,0.479576
928250823,-22.924528,-5.820599,-2.289015,0.889269,0.240570,0.535244
928270884,-28.807598,-7.541894,-6.708288,0.818944,0.092583,0.578262
928290944,-31.338251,-6.647185,-16.030590,0.742151,-0.073170,0.540975
928311006,-31.607595,6.838994,-27.506844,0.770822,-0.156918,0.554137
928331066,-29.952389,14.965555,-36.508678,0.882324,-0.196378,0.544888
928351127,-26.307833,8.548334,-27.380470,0.988823,-0.196679,0.488329
928371187,-18.873680,-0.737119,-5.129437,0.964201,-0.162112,0.454599
928391264,-13.906912,-2.445951,10.106492,0.951713,-0.127130,0.432272
928411307,-12.017719,-3.471575,18.331142,0.959048,-0.103234,0.411239
928431367,-9.943200,-5.307561,21.925026,0.919409,-0.082684,0.371079
928451428,-5.170739,-3.827992,20.884811,0.882554,-0.086624,0.327550
928471488,1.388532,1.326847,18.613506,0.882867,-0.124329,0.308996
928491549,8.841729,6.058952,19.131598,0.891927,-0.182225,0.289755
928511609,16.467518,7.140836,21.290316,0.838766,-0.204169,0.288693
928531671,23.062210,0.673768,22.491291,0.761964,-0.209703,0.262836
928551731,27.541939,-13.314283,21.111479,0.726880,-0.201817,0.248668
928571792,30.930195,-33.520851,17.754429,0.716308,-0.150507,0.187159
928591852,30.360624,-40.358295,12.175903,0.787607,-0.050609,0.158549
928611912,27.282419,-41.324783,6.564944,0.894468,0.019125,0.145289
928631971,22.316051,-29.311596,3.495763,1.033388,0.052171,0.189006
928652032,13.283024,-13.970069,0.315250,1.069742,0.033849,0.255583
928672092,13.488914,-7.510174,-7.711649,0.930645,-0.033860,0.222677
928692153,22.847893,-1.286268,-17.137791,0.849523,-0.108630,0.186306
928712213,34.027958,-1.634903,-19.050589,1.034186,-0.140396,0.510486
928732273,9.295084,25.045839,15.641218,1.471115,0.189466,0.148415
928752335,19.822195,1.764268,28.872583,0.989511,0.027828,0.608452
928772396,11.872856,8.664944,37.687214,1.161894,-0.122567,0.512541
928792456,23.175400,-8.059107,32.222084,0.935207,-0.256567,0.541352
928812517,31.927364,-6.628098,23.604219,0.920842,-0.308478,0.494309
928832577,31.985912,-1.409802,22.652443,0.949682,-0.134012,0.437427
928852636,27.271494,6.340666,25.379007,1.004480,0.045295,0.416670
928872697,24.417875,11.715439,23.836117,1.033156,0.107925,0.429496
928912817,22.307224,9.739318,2.489323,0.971083,-0.014286,0.412238
928932878,21.110712,11.866611,-8.166975,0.956226,0.012579,0.385998
928952938,16.407269,18.047855,-16.302940,0.933073,0.077368,0.387959
928973000,9.719646,25.129009,-19.851604,0.906817,0.086044,0.393114
928993060,4.323782,26.333057,-20.407427,0.874521,0.067252,0.413755
929013120,0.081413,23.482754,-21.406456,0.845535,0.043221,0.391044
929053241,-8.749026,17.657326,-17.921076,0.845423,0.078933,0.388383
929073300,-13.612906,9.399257,-16.534269,0.842705,0.134390,0.371916
929093361,-17.848713,4.032495,-15.516792,0.860425,0.147255,0.361345
929113421,-19.208824,0.235883,-14.309304,0.890905,0.075225,0.342480
929133481,-23.594627,-4.794302,-11.064199,0.886763,0.007456,0.316416
929153542,-29.522610,-6.651992,-6.202541,0.872464,-0.011036,0.287732
929173602,-31.609863,-8.370215,-2.618769,0.887384,0.020222,0.285893
929193664,-32.065609,-8.460314,-0.772840,0.924117,0.049265,0.279435
929213725,-32.823532,-8.198528,3.567844,0.927001,0.045067,0.276471
929233785,-33.641029,-5.647991,6.555165,0.963845,0.015955,0.351313
929253845,-32.648632,-7.476801,2.211440,1.012588,-0.083667,0.379109
929273906,-30.298628,-5.686175,-5.818606,1.032926,-0.157459,0.412654
929293965,-29.622169,-4.547453,-9.348344,0.981001,-0.161720,0.458920
929314025,-32.613323,-1.817768,-7.921508,0.919840,-0.069072,0.512268
929334086,-36.441326,1.072265,-4.937646,0.903098,0.002953,0.491537
929354146,-40.687492,6.653165,-4.175402,0.902326,0.006994,0.487461
929374206,-41.431759,9.512501,-4.810083,0.884039,-0.059913,0.475362
929394267,-36.597889,10.445370,-4.699775,0.866505,-0.141055,0.450519
929414327,-27.676857,11.976297,-3.739120,0.899560,-0.238582,0.411224
929434389,-19.995760,7.535559,-0.758947,0.934050,-0.291128,0.392309
929454449,-14.813177,2.592470,4.656070,0.937801,-0.260554,0.369465
929474510,-12.310030,1.404535,9.341139,0.944295,-0.217788,0.360738
929494570,-11.455364,0.691885,11.253052,0.910688,-0.204537,0.381114
929514629,-9.238119,0.791918,10.144796,0.874479,-0.197770,0.397001
929534689,-7.824180,2.605886,3.709782,0.827595,-0.188750,0.410462
929554750,-6.292425,1.247006,-3.211418,0.795490,-0.189685,0.410933
929574810,-2.944701,-5.511373,-9.625707,0.757163,-0.186625,0.370896
929594871,1.097250,-11.827768,-15.971405,0.746795,-0.185702,0.288490
929614931,8.566746,-13.796771,-22.351633,0.802055,-0.187041,0.231935
929634992,17.270876,-11.950171,-25.531204,0.917402,-0.203386,0.249457
929655054,19.123997,-4.166343,-17.946835,1.130849,-0.148409,0.356140
929675114,14.175740,-0.639444,0.970671,1.264153,0.000317,0.401807
929715235,4.537624,-0.310045,5.283870,0.973850,0.038745,0.409359
929735294,2.178217,-1.121692,1.937321,0.940683,-0.033716,0.374623
929755354,2.206849,0.084895,-1.583903,0.871959,-0.094340,0.354981
929775415,2.682739,4.268239,-3.285367,0.875655,-0.112442,0.359338
929795475,1.946644,5.828580,-1.695488,0.919029,-0.104350,0.375322
929815535,0.293516,5.584741,-0.351742,0.912111,-0.070382,0.380456
929835596,-1.670527,8.191968,-0.855775,0.912248,-0.029172,0.385977
929855656,-2.995797,9.225249,-1.020159,0.944033,-0.018917,0.382082
929875718,-2.584952,8.920922,-1.471130,0.947366,-0.035542,0.376328
929895779,-2.189666,9.057055,-2.813575,0.937631,-0.031003,0.386598
929915839,-2.067944,9.368526,-3.461400,0.927431,-0.034888,0.393179
929935899,-1.617241,9.027903,-1.983046,0.905612,-0.035350,0.400929
929955959,-0.733167,7.630291,-0.377424,0.904259,-0.040437,0.399803
929976019,-0.049017,5.402483,0.395713,0.907883,-0.036777,0.399725
929996079,-0.583469,4.572792,0.494025,0.914687,-0.027796,0.394903
930016140,-1.400090,3.765500,0.417307,0.918815,-0.024204,0.385755
930036200,-3.274693,4.007419,0.694500,0.929339,-0.032802,0.378472
930076321,-8.686279,3.995069,1.150841,0.935604,-0.056455,0.369164
930096383,-9.860896,4.335222,-0.082616,0.941513,-0.070736,0.370508
930136503,-11.028013,4.629666,-1.392425,0.921213,-0.075464,0.375086
930156564,-10.214247,4.013120,-2.607047,0.914749,-0.076746,0.367260
930196683,-8.844191,2.796588,-3.236166,0.930458,-0.079040,0.356436
930216744,-7.921328,3.003164,-2.916595,0.939117,-0.076615,0.353390
930236804,-6.647157,3.180315,-1.834868,0.934977,-0.084834,0.357799
930256865,-4.420362,3.023807,-0.541325,0.925645,-0.099072,0.366469
930276925,-0.180071,3.903845,0.690649,0.938496,-0.116553,0.374720
930296986,3.923690,5.156775,2.182734,0.939941,-0.130837,0.381878
930317047,8.402614,7.384385,4.240434,0.937226,-0.128008,0.395765
930337108,14.504078,9.148955,5.738679,0.932015,-0.120644,0.411528
930357168,21.694887,11.369888,5.932353,0.931555,-0.125166,0.418130
930377229,30.269053,17.182627,5.581630,0.950184,-0.118681,0.435286
930397288,37.786793,25.034008,6.028882,0.949632,-0.077197,0.462039
930417348,42.795177,31.658001,6.347299,0.926838,-0.034086,0.479337
930437408,45.331467,35.784714,7.220957,0.853080,0.033830,0.480794
930457469,52.781460,36.394802,9.455313,0.808318,0.048708,0.487847
930477529,66.717133,20.436073,14.886289,0.803355,-0.043076,0.526900
930497590,77.243942,8.112420,22.241898,0.841399,-0.096788,0.436149
930517650,79.621254,3.782066,26.700415,0.957303,-0.100100,0.351308
930537712,82.990555,6.999676,31.041418,0.966777,-0.098687,0.365004
930557772,79.990608,2.759789,31.739113,0.940509,-0.093217,0.308366
930577833,82.956459,2.565667,32.719040,0.972517,-0.061587,0.309947
930597893,88.328209,0.828443,32.602840,0.985459,-0.040989,0.299430
930617953,93.495041,-2.078474,34.902336,0.960869,-0.031184,0.286710
930638012,99.056000,-2.700007,40.156750,0.925439,0.010451,0.288435
930658073,99.875687,-4.291249,46.559006,0.898183,0.055401,0.301892
930678133,101.304161,-6.118469,52.159363,0.889703,0.089326,0.313625
930698194,103.280853,-7.808951,56.935692,0.891881,0.101918,0.329360
930718254,105.179558,-9.903965,60.315788,0.884078,0.097130,0.338999
930738315,103.608955,-12.314863,62.952076,0.875099,0.097904,0.337084
930758377,100.147507,-14.811594,65.193886,0.888232,0.116647,0.335592
930778437,94.874771,-21.547506,67.651527,0.871777,0.161591,0.322472
930798497,87.653961,-30.462860,68.178207,0.863463,0.182349,0.319434
930818558,87.210114,-29.651796,65.274574,0.972044,0.077384,0.460653
930838618,98.063408,-11.214043,49.050346,1.242311,-0.167036,0.626992
930858677,110.498894,-29.474121,26.033215,1.009839,-0.392866,0.465899
930878738,106.596718,-30.837618,28.346184,0.656972,-0.018187,0.440701
930898798,91.886337,-14.033747,33.098629,0.817074,0.134950,0.415083
930918858,88.229164,-6.254054,33.322590,0.992619,0.116363,0.415030
930938919,95.024261,0.845698,36.316532,0.973180,0.020458,0.430524
930958979,104.757881,-0.300511,37.393524,1.038309,-0.307614,0.454658
930979041,112.198418,-5.445053,44.864586,1.012647,-0.414264,0.429516
930999101,114.862480,-2.946581,54.063072,0.963620,-0.305150,0.419725
931019162,119.315430,-2.933761,63.781254,1.008020,-0.266374,0.388925
931039222,123.826591,-5.720166,74.020638,0.965945,-0.272221,0.350681
931059282,132.326691,-9.450136,79.769424,0.922019,-0.297650,0.319979
931079341,141.832184,-11.766375,82.903702,0.914979,-0.307064,0.298376
931099402,152.319458,-12.608834,82.523727,0.910537,-0.303051,0.266439
931119462,163.276489,-15.680195,81.910469,0.870404,-0.260349,0.261334
931139523,167.578033,-19.754436,81.402481,0.889758,-0.161844,0.254424
931159583,166.444061,-17.010378,79.875801,0.966945,-0.075534,0.247034
931179644,164.255630,-14.315350,75.658211,0.979125,-0.055688,0.267119
931199704,162.342468,-15.927824,69.579536,0.929828,-0.063550,0.274808
931219766,164.245621,-19.370634,63.005028,0.910242,-0.129225,0.242230
931239826,168.908188,-24.011499,57.996140,0.910798,-0.227076,0.217828
931259887,172.832611,-22.952545,55.408066,0.957104,-0.224567,0.196725
931300006,170.856583,-16.580467,53.667606,0.949670,-0.120250,0.208174
931320066,171.176056,-13.168595,48.662811,0.940660,-0.098400,0.204379
931340127,173.223190,-11.338325,42.776169,0.940828,-0.124600,0.226595
931360187,175.223831,-11.150321,38.137375,0.991151,-0.146215,0.264077
931380248,172.854462,-9.806293,37.761242,1.009284,-0.100277,0.284317
931400308,167.433456,-6.385704,40.191216,0.970017,-0.017865,0.282864
931420369,162.891357,-0.081826,41.519424,0.942195,0.052286,0.339590
931440430,157.020035,10.002243,43.168549,0.996781,0.149775,0.410221
931460491,151.673660,20.815060,51.033714,1.079515,0.252807,0.435457
931480551,153.984955,23.478344,57.708622,0.994951,0.177561,0.432354
931500612,154.438080,17.668682,60.435654,0.910536,0.026034,0.415940
931520671,153.360336,8.462123,60.588478,0.882998,-0.052584,0.339912
931540731,151.369812,1.369198,60.151268,0.898683,-0.070830,0.299737
931560791,145.206436,-2.812970,60.692661,0.946581,-0.003500,0.277632
931580852,135.920547,-5.088024,61.774956,0.981950,0.111885,0.280849
931600913,129.389236,-8.778541,59.465446,0.990934,0.185178,0.283491
931620973,121.401512,-10.669824,54.354378,0.968543,0.189828,0.269625
931641033,113.545578,-11.168158,49.878590,0.967960,0.159563,0.270822
931661095,105.843018,-11.323489,45.967567,0.979426,0.129701,0.277065
931681155,96.455925,-11.366387,41.959595,0.981821,0.143267,0.285886
931701216,86.477257,-8.739559,37.819759,0.989227,0.174647,0.310324
931721276,75.996384,-6.112373,34.626175,0.965206,0.202622,0.329747
931741345,68.061905,-3.596309,32.085228,0.930335,0.196052,0.354863
931761396,60.752884,-0.592894,29.368996,0.927418,0.166010,0.383346
931781456,52.734997,1.969102,27.240047,0.905798,0.148106,0.398371
931801517,43.239479,5.267941,25.419197,0.891535,0.146216,0.410834
931821577,34.952583,5.122129,24.300081,0.877867,0.147867,0.412626
931841637,26.798227,1.430603,22.594967,0.868057,0.153484,0.405532
931861698,18.695801,-3.113381,20.423082,0.891697,0.147130,0.383850
931881759,12.958510,-6.437138,19.043676,0.921179,0.093674,0.381198
931901820,6.476056,-9.098689,18.817883,0.928963,0.047022,0.363751
931921880,7.317867,-12.400180,18.338240,0.934253,-0.024544,0.465164
931941941,22.299591,2.664119,11.369039,1.252760,-0.224396,0.548287
931962001,16.300512,-9.272002,1.524899,0.980166,-0.319636,0.481219
931982060,1.325344,-8.234534,3.565431,0.744839,-0.056299,0.458572
932002121,-7.245208,0.865815,5.528697,0.873834,0.046445,0.403629
932022181,-7.171099,3.067400,8.705001,0.880967,0.049447,0.329345
932042241,-5.646590,9.452137,8.912733,0.895037,-0.050126,0.348193
932062302,-0.451278,9.947947,4.781659,0.974362,-0.237169,0.367271
932082362,4.731022,2.139894,5.265081,0.966847,-0.295515,0.334996
932102424,5.334642,0.424341,8.975314,0.931098,-0.240496,0.320518
932122484,7.086548,-2.668229,11.484441,0.952809,-0.222513,0.293870
932142545,12.769629,-6.944545,13.269953,0.927549,-0.238157,0.281905
932162605,19.110462,-7.935123,13.314075,0.894346,-0.247042,0.279031
932182666,25.556658,-7.946550,10.667739,0.873187,-0.240957,0.287325
932202724,32.461151,-6.375924,7.062743,0.876553,-0.225153,0.295040
932222785,37.512562,-4.587444,2.308767,0.865391,-0.214780,0.304462
932242845,41.554916,-4.808953,-3.034774,0.818631,-0.210446,0.304288
932262906,42.440392,-6.022501,-8.376323,0.833265,-0.164124,0.327268
932282966,36.835423,-4.335416,-13.094967,0.917258,-0.061469,0.353171
932303027,25.158730,0.966210,-10.433102,1.118589,0.059120,0.485632
932323087,3.842142,11.352185,5.106973,1.296498,0.301692,0.442048
932343149,-8.834955,9.728247,6.247819,0.916471,0.148796,0.463140
932363209,-9.634254,7.274187,2.255922,0.827694,-0.101634,0.479547
932383270,-10.253481,3.092467,-2.662007,0.845088,-0.168454,0.452803
932403330,-12.016309,-0.467386,-8.599399,0.781559,-0.125265,0.423072
932423389,-17.884857,1.465687,-10.167664,0.830518,-0.066640,0.398402
932443449,-22.746687,0.048831,-6.938503,0.918386,-0.004491,0.372537
932463510,-26.466686,-0.859246,-6.020547,0.947541,0.002180,0.363470
932483570,-29.699102,0.102385,-7.730921,0.963092,-0.006072,0.349833
932503630,-28.993925,-1.260806,-10.029655,0.965296,-0.029778,0.343715
932523691,-26.151484,-1.122038,-11.024190,0.968123,-0.059872,0.342616
932543751,-22.567919,-0.403348,-10.874646,0.957901,-0.071795,0.352685
932563813,-19.938210,-0.666895,-10.611310,0.927022,-0.069077,0.360841
932603934,-17.439398,2.654831,-8.046003,0.930421,-0.041542,0.362831
932623994,-15.157675,3.115438,-5.828663,0.939271,-0.038387,0.360140
932644053,-12.548310,4.396984,-4.784704,0.944683,-0.032588,0.364876
932664114,-9.741921,5.495222,-4.763216,0.935484,-0.021464,0.377867
932684174,-6.700066,4.989386,-3.623780,0.919976,-0.033186,0.394094
932704235,-3.139480,4.408426,-1.958881,0.935927,-0.048506,0.399013
932724295,-0.834724,5.401178,-0.236335,0.934762,-0.047299,0.399152
932764416,2.002458,6.256548,0.417665,0.912106,-0.036408,0.415786
932784478,1.307822,6.574131,-1.045187,0.900687,-0.027725,0.416239
932804538,-0.019115,6.686276,-1.851797,0.900545,-0.023224,0.413168
932824599,-1.544377,6.205335,-2.064371,0.907155,-0.015891,0.413000
932844659,-2.963491,5.032395,-2.018999,0.908271,-0.006666,0.410968
932864718,-4.321059,4.513614,-2.186081,0.916143,-0.011305,0.409018
932884778,-5.160590,3.767057,-2.384685,0.910259,-0.025685,0.418485
932904839,-5.002131,2.534544,-2.577701,0.905603,-0.044677,0.425507
932924899,-5.299304,2.769948,-2.759963,0.917734,-0.046226,0.417143
932944960,-5.802177,3.286443,-3.177899,0.912370,-0.034269,0.418936
932965020,-5.940904,2.084133,-3.309500,0.908542,-0.029652,0.418696
932985080,-5.971692,1.901431,-3.401300,0.917634,-0.032966,0.410210
933005142,-5.506955,1.856049,-3.600214,0.912244,-0.045831,0.407312
933025203,-5.018878,1.476759,-2.869343,0.913056,-0.052336,0.399985
933045263,-4.013053,0.778223,-2.368436,0.907041,-0.047684,0.393889
933065324,-2.450189,0.567155,-1.836824,0.919735,-0.043793,0.385087
933085383,-1.030793,1.314788,-1.044061,0.932176,-0.052974,0.388657
933105443,0.586039,1.499528,-0.351665,0.921598,-0.055252,0.403923
933125504,1.815153,2.482835,0.449365,0.917272,-0.049373,0.407921
933145564,3.104295,2.880127,0.959495,0.913506,-0.052133,0.418244
933165625,4.370052,2.851329,1.446022,0.901652,-0.054307,0.421859
933185685,4.720534,2.555131,1.650993,0.903155,-0.050293,0.429725
933205745,4.872640,2.205368,1.718832,0.902708,-0.053252,0.437301
933225807,4.246677,1.383150,1.763882,0.898562,-0.044224,0.439346
933245867,2.873698,1.061784,1.170097,0.898009,-0.036881,0.442669
933265928,1.332963,0.755401,0.492649,0.895478,-0.038897,0.438927
933285988,-0.185209,0.479149,-0.550832,0.898748,-0.039232,0.433367
933306069,-0.918845,-0.176894,-1.748436,0.907880,-0.042583,0.428152
933326107,-2.520386,-0.376776,-2.372241,0.903504,-0.040184,0.425212
933346168,-4.288706,-0.165566,-2.522297,0.910852,-0.031674,0.420045
933366228,-5.134892,-0.113255,-2.681353,0.912557,-0.032878,0.426182
933386289,-5.447877,-0.182388,-3.092920,0.904067,-0.043548,0.426003
933406349,-5.692332,-0.373117,-3.428521,0.901539,-0.053538,0.424205
933426409,-5.707808,-0.601338,-3.390773,0.905712,-0.048689,0.419579
933446471,-5.967661,-0.875823,-3.787513,0.909353,-0.044770,0.418680
933466532,-5.518026,-0.974280,-3.765341,0.917740,-0.048919,0.419366
933486592,-5.075167,-0.752755,-3.231640,0.911771,-0.051997,0.424474
933506653,-3.870625,-0.667843,-3.141403,0.910808,-0.053779,0.425664
933526713,-1.995129,-1.053301,-2.274915,0.909718,-0.059233,0.424730
933546772,-1.093589,0.005876,-1.358969,0.914737,-0.058607,0.413286
933566832,-0.901568,1.299371,-1.410300,0.920034,-0.055106,0.410973
933586893,-0.497533,1.352991,-1.433563,0.913860,-0.046386,0.414073
933606954,-0.093120,1.330975,-0.953629,0.910120,-0.045940,0.414809
933627014,0.358423,2.632655,-0.631568,0.905632,-0.048607,0.418940
933647074,0.830303,2.115652,-0.755058,0.895568,-0.050593,0.424949
933667136,1.240113,0.723601,-0.956280,0.895637,-0.043999,0.416672
933687196,0.827474,-0.311304,-0.759334,0.904824,-0.038414,0.412768
933707257,0.041610,-0.707936,-1.064151,0.910161,-0.037457,0.410679
933727317,0.207809,-1.773141,-1.340770,0.906354,-0.035736,0.411393
933747378,0.252724,-2.488237,-1.326831,0.910122,-0.037693,0.412861
933767437,0.580859,-2.495176,-0.923042,0.917004,-0.044361,0.413557
933787497,1.701867,-2.280851,-0.657076,0.909653,-0.049545,0.405322
933827618,3.120123,-2.491848,0.111120,0.916256,-0.039889,0.402574
933847678,3.721313,-3.145781,-0.134785,0.915747,-0.034908,0.406117
933867739,4.093618,-4.119312,-0.205578,0.914400,-0.032033,0.402412
933887801,4.589779,-3.685003,0.000507,0.918878,-0.033982,0.405165
933907861,6.046398,-3.409354,0.426335,0.921631,-0.041005,0.407238
933927922,6.999552,-3.202939,0.532337,0.917329,-0.041367,0.407976
933947982,7.015729,-2.609270,0.792656,0.920105,-0.035809,0.406126
933968042,6.848433,-2.419060,0.983845,0.924352,-0.031594,0.401784
933988101,7.138813,-1.749334,0.923672,0.922638,-0.035566,0.401723
934008162,7.901705,-1.254029,0.992277,0.921707,-0.042390,0.400632
934028222,8.428667,-0.758597,1.457726,0.925397,-0.039631,0.401115
934048282,8.795049,-0.491787,1.663670,0.917180,-0.034264,0.402684
934068343,8.575380,0.451666,1.970643,0.919757,-0.022844,0.403007
934088403,7.538509,0.321291,1.910632,0.919711,-0.014166,0.410587
934108465,6.067489,0.859583,1.371863,0.918106,-0.016303,0.411588
934128526,4.893242,1.116494,0.641590,0.912952,-0.019398,0.411082
934148607,3.224241,1.715590,0.248061,0.910495,-0.014998,0.410327
934168646,2.293557,1.387225,-0.132727,0.912583,-0.010946,0.415662
934188707,1.522731,0.952413,-0.613032,0.912126,-0.012705,0.407780
934208766,0.250034,1.475826,-0.984285,0.920897,-0.015033,0.403540
934228826,-0.924361,1.253823,-1.273081,0.916057,-0.012887,0.406771
934248887,-1.626914,0.385587,-1.563576,0.916247,-0.014662,0.404169
934268947,-1.985394,0.225445,-1.601564,0.919411,-0.022207,0.402626
934289007,-2.282243,0.575151,-1.577717,0.919906,-0.026338,0.400977
934309068,-1.938383,0.865067,-1.028525,0.921296,-0.026389,0.399461
934329128,-1.495593,1.033329,-0.502544,0.919366,-0.030042,0.401933
934349190,-0.504669,0.715084,-0.107716,0.919900,-0.030038,0.402761
934369250,0.013487,0.213839,0.333108,0.917787,-0.028958,0.405154
934389311,0.181028,-0.204126,0.690605,0.914546,-0.025968,0.406223
934409371,0.470804,-0.264532,0.896063,0.917926,-0.027528,0.403772
934429430,0.532339,0.108433,1.026293,0.916658,-0.025469,0.405803
934449491,0.020968,-0.417052,0.972589,0.912842,-0.018824,0.407165
934469551,-0.169936,-0.394760,0.576291,0.915310,-0.015638,0.404620
934489611,-0.223873,-0.630949,0.248011,0.921058,-0.017055,0.402486
934509672,-0.451910,0.068602,0.058859,0.923286,-0.022141,0.405517
934529732,-0.261357,0.235964,-0.162232,0.919845,-0.023771,0.402115
934549793,-0.436273,0.502165,-0.062415,0.918945,-0.021167,0.404508
934569854,-0.512505,0.502086,-0.069951,0.916452,-0.023311,0.404039
934589915,-0.466841,0.471664,-0.108190,0.916825,-0.026848,0.405101
934609976,-0.420925,0.547875,-0.008969,0.915014,-0.027291,0.403801
934630036,0.097609,0.624555,0.112571,0.914058,-0.029730,0.403731
934650095,0.508890,0.373841,0.065884,0.914028,-0.028211,0.407520
934670156,0.714354,-0.006269,0.171738,0.915965,-0.024660,0.404414
934690216,0.554173,-0.074920,0.141302,0.915453,-0.018475,0.403760
934710277,0.470522,0.130376,0.096006,0.916249,-0.021336,0.407727
934730336,0.226410,0.069166,-0.033459,0.914111,-0.022276,0.403431
934750397,0.256484,-0.197187,-0.148358,0.916942,-0.025122,0.399627
934770457,0.058952,0.175626,0.088947,0.922269,-0.022855,0.399696
934790519,0.241381,-0.045075,-0.186203,0.920301,-0.020723,0.399896
934810579,-0.025237,0.258817,-0.383633,0.924899,-0.020484,0.397531
934830640,-0.413170,0.897588,-0.305784,0.918233,-0.021635,0.402867
934850700,-0.992759,0.775181,-0.450211,0.911798,-0.022194,0.405745
934870759,-1.084635,0.402329,-0.420255,0.914164,-0.025206,0.402389
934890819,-1.245111,0.196605,-0.595831,0.915034,-0.028142,0.407357
934910880,-1.496961,-0.145906,-0.496995,0.913663,-0.026168,0.404120
934930940,-1.368098,-0.678438,-0.604854,0.917536,-0.025642,0.401827
934951001,-1.056185,-1.195493,-0.613761,0.915178,-0.025888,0.400785
934971061,-0.522627,-1.278600,-0.530652,0.918729,-0.030680,0.401113
934991122,-0.308278,-0.502367,-0.514285,0.917938,-0.028933,0.401342
935011184,0.468840,-0.912367,-0.409162,0.916345,-0.025613,0.402257
935031244,1.314749,-1.185330,-0.273374,0.917218,-0.028657,0.395239
935051305,1.232381,-0.188457,0.071662,0.926696,-0.022626,0.396602
935071365,1.408447,0.040409,0.590440,0.921576,-0.024268,0.401521
935091424,1.522871,0.200191,0.483819,0.922718,-0.020443,0.403027
935111484,1.598670,-0.020531,0.300310,0.917401,-0.020400,0.405101
935131545,1.339185,-0.142674,0.109747,0.913245,-0.023973,0.404349
935151605,0.744559,-0.166103,0.064653,0.913474,-0.020130,0.405927
935171665,0.279220,-0.394879,-0.041966,0.913633,-0.021129,0.406219
935191726,0.119002,-0.349572,-0.255230,0.917556,-0.023994,0.402528
935211786,0.332029,-0.471347,-0.537868,0.918995,-0.024557,0.403110
935231848,0.651663,-0.813511,-0.660870,0.919537,-0.024562,0.403393
935251909,0.286478,-0.380020,-0.453765,0.920240,-0.020939,0.397719
935271969,0.158130,0.418988,-0.124276,0.924827,-0.020133,0.396707
935292030,0.310844,0.692967,-0.184984,0.924280,-0.025493,0.402048
935312088,0.097682,1.202191,-0.534640,0.918850,-0.021532,0.404330
935332149,-0.565077,1.581921,-0.578942,0.915985,-0.018834,0.410133
935352209,-1.075423,1.893364,-0.577788,0.917791,-0.017650,0.406790
935372270,-1.189260,2.364905,-0.630205,0.920181,-0.021982,0.406089
935392330,-0.983359,2.342391,-0.500843,0.916889,-0.027006,0.406649
935412391,-1.143310,2.319557,-0.340543,0.912097,-0.024814,0.412695
935432451,-0.945008,2.449048,-0.378681,0.916847,-0.021582,0.410013
935452513,-0.852454,3.476108,-0.499000,0.921511,-0.018725,0.406517
935472574,0.068949,2.594556,-0.387253,0.908265,-0.021122,0.411561
935492634,0.350542,1.986439,-0.098862,0.905363,-0.021917,0.409700
935512694,0.320214,1.895370,0.190810,0.914541,-0.024564,0.414101
935532753,0.594632,1.834841,0.274267,0.912576,-0.022992,0.413402
935552814,0.884056,1.690503,0.205033,0.914465,-0.022259,0.415879
935572874,0.906625,1.416657,0.227402,0.909280,-0.021613,0.416039
935592934,1.020586,1.135222,0.173387,0.909438,-0.022425,0.416600
935612995,1.356008,1.029177,0.340580,0.911098,-0.025078,0.412134
935633055,1.477717,0.770667,0.393363,0.913643,-0.020669,0.412024
935653115,1.515712,0.694597,0.362679,0.913798,-0.020271,0.414291
935673177,1.340178,0.527034,0.339713,0.910813,-0.019682,0.413496
935693238,0.798762,0.359123,0.317180,0.910330,-0.020850,0.413868
935713298,0.768204,0.191839,0.454194,0.908036,-0.021253,0.414374
935733359,0.516251,-0.044376,0.309178,0.911142,-0.019098,0.410678
935753417,0.455048,-0.211837,0.278450,0.915228,-0.017769,0.413189
935773478,0.256460,-0.387198,0.064842,0.912724,-0.018879,0.414701
935793538,0.111382,-0.607961,0.072251,0.910503,-0.020007,0.415493
935813599,0.050567,-0.448271,0.049726,0.915112,-0.020060,0.412043
935833659,0.081494,-0.242637,0.263586,0.915663,-0.020817,0.410885
935853720,0.050794,-0.235267,0.027222,0.914883,-0.020005,0.415125
935873780,-0.238981,-0.319251,0.004539,0.913824,-0.019465,0.413552
935893842,-0.284683,-0.266065,-0.025818,0.914825,-0.018926,0.414289
935913902,-0.422082,-0.220784,-0.292493,0.912152,-0.021626,0.413008
935933962,-0.551972,-0.380789,-0.422267,0.913319,-0.023671,0.411702
935954023,-0.704371,-0.342887,-0.414393,0.912391,-0.024100,0.412235
935974082,-1.085584,-0.320533,-0.535922,0.911233,-0.019471,0.410231
935994142,-1.062863,-0.373849,-0.627557,0.916554,-0.021555,0.411278
936014203,-1.116117,-0.381399,-0.505488,0.915490,-0.020267,0.410964
