Timestamp (us),Gyroscope X (deg/s),Gyroscope Y (deg/s),Gyroscope Z (deg/s),Accelerometer X (g),Accelerometer Y (g),Accelerometer Z (g)
917410905,0.042536,-0.125823,-0.067708,-0.461788,0.201853,0.868976
917430917,0.044167,-0.021327,0.078265,-0.462766,0.204242,0.865623
917450926,-0.186617,-0.014570,-0.015588,-0.463243,0.202704,0.864894
917470936,-0.085221,-0.143435,0.003132,-0.462870,0.203150,0.866166
917490946,-0.353920,-0.167018,-0.105472,-0.461915,0.206042,0.868170
917510956,0.063144,-0.120215,0.129611,-0.459377,0.205366,0.868797
917530985,0.028050,0.049475,0.011155,-0.462129,0.204416,0.864986
917550973,-0.127691,-0.167864,0.117393,-0.459918,0.206842,0.864077
917570983,-0.230160,-0.278582,-0.133002,-0.461835,0.205774,0.865897
917590993,-0.246116,-0.329970,-0.216674,-0.459007,0.206183,0.867253
917611002,-0.232341,-0.190828,-0.259804,-0.458891,0.201360,0.867240
917631011,-0.027711,-0.027737,-0.268502,-0.459154,0.202644,0.864791
917651021,0.043777,0.008286,-0.101860,-0.462583,0.203778,0.867803
917671031,0.134851,0.047516,-0.102860,-0.462122,0.204502,0.866894
917691040,0.068997,0.126819,0.105063,-0.458400,0.204266,0.866428
917711050,0.133804,0.039955,-0.133377,-0.461057,0.202299,0.868339
917731061,0.357240,-0.141438,-0.087565,-0.460996,0.207307,0.866080
917751071,0.090650,-0.273665,-0.098855,-0.459425,0.209287,0.865717
917771080,-0.189646,-0.142641,-0.310799,-0.460335,0.202569,0.865430
917791090,-0.240662,-0.053736,-0.170744,-0.462234,0.203233,0.865710
917811100,-0.295386,-0.037507,-0.260139,-0.462130,0.204325,0.865077
917831135,-0.279512,0.083900,-0.204600,-0.460576,0.204386,0.867526
917851118,-0.305801,0.072499,-0.021482,-0.459659,0.205378,0.865799
917871127,-0.481082,-0.004882,-0.087384,-0.462090,0.207051,0.866083
917891137,-0.439446,-0.323499,-0.153667,-0.459010,0.199361,0.866963
917911146,-0.083308,-0.126829,-0.218556,-0.461034,0.203844,0.868888
917931156,-0.079754,-0.068950,-0.019680,-0.460074,0.201654,0.865791
917951166,0.208033,0.019515,-0.085191,-0.462216,0.204506,0.865895
917991185,-0.082333,-0.044621,-0.102388,-0.460481,0.204933,0.866618
918011195,-0.074501,-0.044472,-0.102265,-0.458871,0.202723,0.867698
918031206,0.132975,0.002149,-0.014661,-0.462893,0.201238,0.867161
918051215,0.093422,0.108252,0.003132,-0.459511,0.203012,0.865338
918071225,0.065408,-0.098655,0.023254,-0.460233,0.203294,0.865704
918091235,0.147884,-0.005711,0.007592,-0.460316,0.204393,0.863708
918111244,-0.015203,0.221486,-0.000482,-0.460412,0.203386,0.866432
918131254,0.095972,0.293775,0.264092,-0.461442,0.201679,0.864068
918151262,0.277915,0.272977,0.221184,-0.464271,0.206715,0.867633
918171272,0.044346,0.009835,0.244276,-0.460771,0.203480,0.867251
918191282,-0.144944,0.103692,-0.009000,-0.457455,0.206522,0.868067
918211291,-0.169164,-0.023515,-0.177517,-0.459139,0.203459,0.866156
918231301,-0.305687,0.042682,-0.119873,-0.462252,0.201684,0.866615
918251311,0.159701,0.297657,-0.011670,-0.460123,0.204657,0.865889
918271320,0.141182,0.760107,0.094762,-0.461771,0.204047,0.864802
918291330,0.113734,0.535788,0.137155,-0.461022,0.204846,0.868164
918311340,-0.054314,0.245168,-0.000848,-0.459269,0.207006,0.867165
918331350,-0.158847,-0.037910,-0.056107,-0.460492,0.204575,0.864527
918351360,0.035807,-0.061574,0.121740,-0.461688,0.202949,0.866980
918371370,0.138775,-0.056245,0.324344,-0.461701,0.202132,0.866342
918391380,0.197831,-0.031286,0.254257,-0.461846,0.205139,0.865260
918411389,0.029100,-0.282041,0.093804,-0.458183,0.206810,0.866616
918431399,-0.079351,-0.228088,0.036079,-0.461013,0.206035,0.865895
918451407,-0.011624,-0.036835,0.083059,-0.459620,0.201188,0.867514
918471417,0.037015,0.353456,0.042305,-0.460225,0.203472,0.867431
918491426,0.134413,0.453558,0.011237,-0.459295,0.205924,0.863709
918511436,0.195448,3.290082,-1.989586,-0.458819,0.206911,0.866164
918531446,0.291184,4.768641,-1.367622,-0.468258,0.201504,0.865178
918551455,0.499014,5.156363,-0.278966,-0.459251,0.209107,0.863808
918571465,0.199577,8.465511,0.243072,-0.462153,0.202228,0.866889
918591475,0.933397,7.098253,0.730398,-0.473559,0.206684,0.862481
918611484,1.153583,3.859518,0.492423,-0.470494,0.204727,0.862922
918631495,0.637277,1.658250,-0.154378,-0.475111,0.206989,0.859125
918651505,0.728580,0.835161,-0.617744,-0.475466,0.200623,0.860473
918671515,0.854906,0.507557,-0.579982,-0.472634,0.201673,0.860285
918691524,1.255681,0.327139,-0.484982,-0.468887,0.203164,0.860369
918711534,1.005592,-0.455837,-0.415890,-0.475313,0.205446,0.859122
918731543,0.826551,-1.195350,-0.598492,-0.473350,0.209788,0.857582
918751552,0.176350,-2.108608,-0.758517,-0.473634,0.208973,0.857581
918771562,-0.283348,-2.096634,-0.436809,-0.471131,0.205658,0.858655
918791571,-0.156512,-2.446799,0.011073,-0.468327,0.210612,0.861658
918811580,-0.374848,-2.815126,-0.028034,-0.471131,0.211654,0.861578
918831590,-1.030769,-3.352616,-0.280860,-0.468192,0.207153,0.861649
918851600,-1.564288,-3.223950,-0.556265,-0.471422,0.202825,0.864919
918871610,-1.097763,-2.667264,-0.215460,-0.467716,0.201499,0.864268
918891620,-0.336591,-2.043888,-0.001549,-0.462588,0.204702,0.862535
918911629,-0.234844,-2.249226,0.015852,-0.461220,0.211135,0.864910
918931640,-0.832379,-1.989436,0.055543,-0.465539,0.207926,0.863915
918951650,-1.305960,-0.868830,-0.137169,-0.458654,0.206647,0.862074
918971659,-1.253492,1.467396,-0.504522,-0.461503,0.196579,0.866691
918991669,-1.216249,5.012967,-0.609323,-0.465335,0.195452,0.866881
919011679,-0.724410,7.019912,0.643081,-0.469403,0.204159,0.865189
919031688,0.823446,6.479605,0.236547,-0.476393,0.198997,0.861471
919051696,3.806950,10.346696,0.248469,-0.486090,0.188505,0.858202
919071706,9.172986,14.459119,0.007925,-0.487092,0.188338,0.858386
919111726,11.561891,6.604172,-0.348970,-0.480906,0.216367,0.854350
919131735,9.064254,3.773735,0.055443,-0.484618,0.231715,0.850675
919151745,6.644670,1.614004,-0.276249,-0.484472,0.229996,0.846490
919171754,5.870115,1.079515,-0.344048,-0.490092,0.217246,0.848837
919191764,6.132075,0.475829,-0.153892,-0.488873,0.219680,0.850111
919211774,5.678347,-0.258798,0.072356,-0.483005,0.216865,0.849724
919231785,6.353599,-0.352562,0.193238,-0.487784,0.211921,0.854177
919251794,9.512369,-0.434723,0.815980,-0.495857,0.214052,0.850300
919271804,9.745918,-0.670069,1.316588,-0.474335,0.232839,0.849648
919291814,8.332973,-0.867147,1.191753,-0.480747,0.237134,0.844044
919311824,6.684889,-0.992666,1.187105,-0.482889,0.240813,0.840970
919331833,6.171105,-1.216361,0.556075,-0.479751,0.236570,0.845221
919351861,6.865246,-1.161950,0.944933,-0.489329,0.240161,0.847984
919371851,7.776306,0.381451,1.907420,-0.501105,0.209311,0.849485
919391861,10.425221,1.418925,3.227599,-0.473675,0.268680,0.846648
919411870,13.322591,2.749818,4.524252,-0.497280,0.228339,0.856337
919431880,20.972755,6.725832,7.828156,-0.483500,0.235002,0.873759
919451890,21.770523,15.125575,6.635375,-0.401214,0.299967,0.890218
919471899,14.053543,29.259331,-8.522692,-0.370464,0.351332,0.936416
919491909,-7.015801,49.882206,-50.126335,-0.405663,0.503668,1.077746
919511919,-0.830733,59.832443,-103.716835,-0.319834,0.750076,1.260390
919531928,11.207177,44.437939,-115.816467,0.137602,0.924024,1.478186
919551939,25.768406,9.792622,-85.117996,0.622715,0.984213,1.424748
919571949,35.329491,-7.081354,-48.674370,1.021763,0.693461,1.361676
919591958,31.411312,-32.589703,-21.389229,0.957126,0.508656,1.462710
919611968,31.958229,-67.136986,-3.851221,0.765285,0.373062,1.453756
919651987,30.388557,-98.741653,25.499985,0.151670,0.484861,1.349638
919671996,33.244781,-119.360962,53.142307,-0.401787,0.547198,1.310183
919692005,30.229313,-125.538315,69.225395,-0.524020,0.463819,0.986677
919712015,24.073166,-98.076973,72.547615,-0.619852,0.406520,0.764927
919732025,12.286071,-56.429352,71.112465,-0.783410,0.273328,0.721912
919752034,12.095193,-34.884285,61.815788,-1.144940,0.052852,0.736324
919772044,23.979895,-35.074829,49.623535,-1.270402,-0.065643,0.633900
919792054,29.169802,-45.884853,37.301746,-1.423965,-0.146681,0.423982
919832073,12.758956,-3.746026,1.865074,-1.232678,-0.107231,0.126847
919852084,-1.895477,16.713009,-4.538850,-1.161097,-0.056721,0.097142
919872094,-17.694714,37.493736,-14.303495,-1.237664,-0.030470,0.059636
919892103,-51.726788,101.727264,-49.532661,-0.957354,-0.426105,-0.536265
919912113,-64.128098,256.428650,-112.159996,-0.603409,0.623417,2.121384
919932122,-57.115952,98.763840,-49.075954,-1.628730,0.288313,1.055650
919952132,-22.452267,99.879646,-14.142448,-0.747907,0.242197,1.244101
919972140,-18.703150,23.018705,-24.163017,-0.890917,0.003429,1.140152
919992150,-23.701756,2.503200,-8.224377,-0.569062,0.636762,0.859860
920012160,-30.570013,-8.587776,2.588707,-0.666220,0.148843,0.834646
920032169,-11.984867,-14.418635,-3.351526,-0.576746,0.214061,0.852447
920052179,0.340940,-12.761594,-2.358293,-0.519079,0.081735,0.859391
920072189,17.025980,-4.026734,3.623988,-0.522983,0.131034,0.849987
920092198,25.047066,1.824554,7.777937,-0.482349,0.259166,0.846376
920132218,24.125542,8.358400,9.070855,-0.509503,0.291729,0.828549
920152229,24.348799,9.455349,9.364539,-0.505385,0.258718,0.835631
920172239,27.975948,9.250936,7.284360,-0.498687,0.235131,0.842002
920192248,30.373709,8.361381,6.017951,-0.482552,0.253836,0.833915
920212260,27.685759,7.810074,6.104929,-0.478326,0.307119,0.820227
920232267,23.272419,5.980666,3.533080,-0.508450,0.320884,0.806540
920252277,16.210569,1.789823,-1.056272,-0.467000,0.368492,0.803630
920272285,-0.108241,-6.475851,-9.570373,-0.457796,0.411030,0.800531
920292294,-17.683270,-15.976104,-18.168133,-0.484417,0.395470,0.813382
920312304,-30.106342,-24.489187,-28.320351,-0.473215,0.357373,0.811889
920332314,-31.606056,-25.835522,-30.004482,-0.495555,0.300043,0.806085
920352324,-22.953764,-18.456829,-21.590807,-0.496085,0.209847,0.825120
920372333,-12.025150,-8.409130,-13.662952,-0.467851,0.241933,0.848925
920392343,-7.216458,-1.774494,-10.948166,-0.492305,0.262592,0.845142
920412353,-1.141010,4.297904,-10.162154,-0.487633,0.258980,0.843211
920432362,5.255056,13.859531,-8.279247,-0.490494,0.222835,0.870023
920452373,13.415540,33.934933,-3.038523,-0.427474,0.210085,0.934136
920472383,23.984442,65.984505,-1.431939,-0.418604,0.179387,0.968014
920492393,35.069527,109.376007,-1.748899,-0.404997,0.236394,0.972753
920512402,42.720493,173.383759,-5.431557,-0.406971,0.341205,1.046897
920552422,62.542130,320.960297,-60.818947,-0.487800,0.450538,1.057500
920572430,48.728729,392.340851,-92.994293,-0.585762,0.591039,1.006265
920592440,-4.983298,481.810333,-142.791245,-0.708121,0.780291,0.991752
920612449,-63.130875,532.995422,-157.883224,-1.205941,1.130947,1.751282
920632459,-89.639603,283.864441,-55.341331,-2.564805,1.399268,2.889598
920652468,46.666443,-14.067633,-56.529785,0.081780,-0.049762,2.439119
920672478,66.414032,-84.487015,-77.616905,0.458700,0.922491,1.904108
920692488,67.085976,-179.310730,-63.725899,0.130831,0.893906,1.449872
920712498,45.370544,-219.237427,-17.258686,0.524222,0.841194,0.990349
920732507,48.180328,-238.511902,25.335255,0.115316,0.631355,0.895437
920752518,50.034035,-258.959320,62.853424,-0.083767,0.483455,0.834136
920772528,49.553402,-269.929413,73.949562,-0.330003,0.303729,0.858214
920792537,58.901825,-283.609955,69.817329,-0.572287,0.233629,1.027668
920812547,58.609715,-302.382141,55.572533,-0.775136,0.401822,1.202155
920832557,36.395454,-305.409149,51.447884,-0.871345,0.593650,1.168036
920852567,39.051323,-275.494690,88.195930,-1.061241,0.514694,1.128326
920872575,10.752953,-221.665604,117.370155,-1.308871,0.683708,1.108591
920892584,-31.074383,-161.935760,141.902328,-1.792072,0.785931,1.039680
920912594,-30.028671,-131.707428,184.018555,-2.505133,0.766049,0.924799
920932604,8.579099,-142.469177,249.543610,-2.862744,0.382591,0.124649
920952613,27.659946,-92.431168,237.848343,-3.043104,-0.823490,-1.155241
920972624,68.971115,-1.180204,148.482910,-3.416253,-1.675024,-1.351658
920992633,1.510956,68.596764,7.817432,-2.699142,-1.261482,-0.761390
921012642,1.492852,97.283936,-101.096176,-1.953024,-0.460438,-0.081177
921032652,1.690681,206.032623,-200.518097,1.025012,1.045128,1.421713
921052663,-2.745304,141.555725,-17.704178,-2.154753,1.424113,0.762880
921072673,-106.110306,137.515701,-110.214394,-1.614051,0.828212,1.589802
921092682,-132.659760,42.331306,-82.670784,-0.394434,-0.079753,1.159642
921112692,-116.390373,-14.263651,-48.157246,-1.044113,0.189333,1.018049
921132702,-43.816639,-28.455305,-28.316723,-0.495051,0.139257,0.852197
921152711,-16.152876,-20.536909,-4.635243,-0.684050,0.064269,0.820400
921172720,1.667377,-8.398606,3.063657,-0.485672,0.153395,0.854113
921192729,9.813303,-1.101978,9.328047,-0.546041,0.233523,0.820876
921212739,10.560010,0.848717,8.324034,-0.529839,0.243491,0.813948
921232749,9.194456,-0.623452,5.213554,-0.540089,0.277933,0.816065
921252758,6.919578,-1.882938,4.163133,-0.513016,0.232175,0.836131
921272768,5.049898,-1.534891,4.011032,-0.492693,0.230705,0.830797
921292778,2.988810,-2.854827,1.343541,-0.484522,0.274773,0.839517
921312787,-0.921408,-6.842132,-3.234163,-0.488969,0.260909,0.843674
921332797,-3.068206,-9.362867,-5.850244,-0.474499,0.241123,0.848397
921352808,-3.393252,-9.111778,-5.147591,-0.478563,0.248907,0.851882
921372817,-4.829907,-8.015635,-5.008376,-0.481094,0.258702,0.842828
921392827,-3.994807,-5.582144,-4.334358,-0.471850,0.215708,0.846689
921412837,-0.645215,1.115305,0.358699,-0.474817,0.189623,0.854082
921432847,3.729371,4.517992,3.754231,-0.493818,0.197103,0.849614
921452856,6.092425,4.019933,4.068238,-0.490225,0.207882,0.847087
921472864,10.747939,4.339594,4.520770,-0.483844,0.199474,0.860404
921512883,5.231423,0.802207,-2.333926,-0.474454,0.307843,0.834301
921532893,0.363538,-2.805427,-5.684092,-0.476021,0.278102,0.840227
921552903,-3.670208,-2.532327,-6.437114,-0.483142,0.255185,0.842643
921572912,-4.655193,-3.117050,-5.961476,-0.485797,0.226931,0.843124
921592922,-2.765380,-3.761931,-4.134512,-0.491853,0.209280,0.843643
921612932,-2.615628,-5.373172,-3.182397,-0.472926,0.256842,0.846797
921632941,-5.158892,-7.564343,-4.401318,-0.472132,0.255839,0.843521
921652952,-6.307879,-8.647346,-4.781362,-0.471536,0.245358,0.847309
921672962,-4.697059,-7.873217,-4.773340,-0.471606,0.218320,0.855145
921692972,-2.156838,-5.338945,-3.526165,-0.475713,0.210650,0.854229
921712981,1.224613,-1.966796,-3.340499,-0.479870,0.212073,0.855517
921732991,5.275599,-0.942947,-3.365665,-0.475406,0.206737,0.853037
921753001,7.480292,-0.734227,-2.961158,-0.474499,0.227291,0.850270
921773014,11.124594,0.068123,-2.813845,-0.448970,0.220002,0.849176
921793019,15.360620,3.331779,-1.135484,-0.429801,0.257541,0.856848
921813028,15.570462,5.997718,-1.478233,-0.438257,0.256290,0.861231
921833038,18.666300,12.520485,-1.723512,-0.433525,0.260094,0.875401
921853048,26.087036,28.252825,-3.939025,-0.419994,0.252830,0.931224
921873057,42.732666,68.594246,-7.402865,-0.425920,0.250294,0.993567
921893067,59.813816,133.286011,-18.627682,-0.397154,0.323083,1.067539
921913077,91.765114,223.467606,-38.809616,-0.508785,0.282899,1.063588
921933086,90.479218,329.648407,-61.349918,-0.668189,0.648310,1.137043
921953096,81.011208,398.964355,-75.999908,-1.648395,1.012944,0.774874
921973107,-5.606194,265.762817,-2.854918,-3.753948,1.866923,1.666289
921993117,-39.317917,9.148216,-1.514041,-2.917962,0.092401,1.237878
922013126,59.850136,16.782682,-70.839790,-1.172275,0.323609,0.843040
922033136,24.899311,-36.787323,-136.449203,-2.499564,0.378124,1.105977
922053145,21.415255,-47.947472,-150.931839,-0.838717,0.737630,0.693998
922073155,-18.907867,-7.328404,-126.473312,-1.018178,0.640742,0.668387
922093164,-42.951229,13.896212,-68.559731,-0.779551,0.633800,0.650672
922113173,-57.880928,26.680698,-19.753784,-0.610310,0.360271,0.590596
922133183,-63.204338,28.995869,16.276173,-0.625172,0.272197,0.609861
922153193,-77.670120,12.054662,33.021160,-0.515569,0.127777,0.565645
922173202,-92.282310,-13.900393,36.097019,-0.502045,-0.050838,0.437852
922193212,-75.705307,-39.688053,21.312107,-0.412012,-0.136926,0.392570
922213222,-81.729462,-63.034996,14.605968,-0.100567,0.050271,0.005319
922233231,-71.530884,-63.800365,25.929756,-0.245751,-0.018368,-0.023865
922253241,-70.064995,-54.306808,31.071943,-0.071610,-0.018970,-0.082081
922273252,-67.844604,-49.508404,38.343948,-0.186038,0.004223,-0.093223
922293262,-63.737732,-39.407791,39.805485,-0.142385,-0.129197,-0.143666
922333281,-56.654026,-25.102383,9.836597,-0.021147,-0.278838,-0.136864
922353290,-54.136185,-20.595465,6.637865,-0.077194,-0.301099,0.026345
922373300,-53.902946,-22.869209,3.244887,-0.144031,-0.276427,0.082760
922393308,-51.769432,-18.534801,-2.950943,-0.262487,-0.274974,0.127092
922413318,-49.612316,-12.760271,-11.101098,-0.341997,-0.174762,0.105411
922433327,-43.622952,1.245823,-12.058750,-0.425185,-0.042608,0.134070
922453337,-33.384026,8.341752,-8.632160,-0.609078,0.056446,0.305690
922493356,-7.645599,-2.765769,-9.586234,-0.760605,0.086247,0.376088
922513366,3.462728,-1.687221,-14.626846,-0.779242,0.048251,0.365961
922533376,14.012450,1.506172,-22.146030,-0.746737,0.039866,0.362118
922553385,22.517855,4.483378,-26.112848,-0.741320,0.083828,0.391199
922573397,30.131050,3.857049,-21.679310,-0.722830,0.148251,0.385129
922593406,38.886631,4.352281,-15.603121,-0.674730,0.047484,0.278602
922613416,47.822918,4.956333,-25.834511,-0.604940,-0.036864,0.205309
922633426,57.560326,3.810540,-40.215389,-0.494308,-0.059864,0.165488
922653435,63.544075,2.701265,-50.455982,-0.401826,0.053394,0.265997
922673445,64.727379,-4.843176,-40.702450,-0.338071,0.152854,0.310039
922693453,67.634323,-9.035485,-22.107822,-0.278023,0.055860,0.257278
922713463,79.762619,-14.359675,-22.869438,-0.330489,-0.141417,0.294549
922733472,88.327293,-29.477116,-40.310200,-0.350709,-0.073208,0.446978
922753482,81.891678,-45.503307,-34.684494,-0.297347,0.195469,0.443142
922773492,78.997650,-41.316498,2.424984,-0.194632,0.289023,0.473333
922793502,83.503624,-37.800327,41.600178,-0.164405,0.191923,0.590211
922813511,91.832771,-41.643177,71.912132,-0.291350,0.114564,0.760123
922833521,86.133507,-54.642796,81.727608,-0.516565,0.083820,0.983690
922853530,80.112801,-81.070160,64.026772,-0.731811,-0.042252,1.148560
922873541,79.266052,-110.513748,45.323921,-0.840871,0.164879,1.381202
922893551,58.879345,-132.225861,57.331966,-0.896757,0.432596,1.354880
922913561,43.649544,-110.600037,101.311630,-1.151093,0.611633,1.298481
922933570,26.053368,-58.886150,129.577118,-1.371923,0.621537,1.097625
922953580,-9.340549,24.409550,109.696983,-1.611208,0.440435,0.512531
922973598,-39.485535,153.147598,47.323902,-1.511184,0.340717,0.237301
922993606,-177.649277,-52.015270,58.180130,-4.279736,2.579594,4.087533
923013616,-121.272560,-159.933212,-4.591805,1.542333,0.533729,1.365817
923033625,-115.457993,-108.936447,25.251019,-0.991186,0.273095,1.039549
923053635,-36.837975,-16.747189,-34.257473,-0.024423,-0.213744,1.013006
923073645,0.193990,9.763980,5.805126,-0.544208,-0.127266,0.911362
923093654,18.689169,13.293676,14.928015,-0.421734,0.229115,0.828675
923113664,18.462757,10.959846,19.343182,-0.581335,0.207421,0.809647
923133674,16.986889,5.402459,17.007145,-0.551539,0.327990,0.802869
923153683,8.424345,-1.420788,9.193186,-0.540209,0.366955,0.797574
923173694,0.086096,-3.947523,4.254421,-0.504010,0.315307,0.826048
923193704,-2.938065,-2.165881,5.198582,-0.494175,0.242836,0.827289
923233723,-5.222538,0.537777,5.008716,-0.468539,0.224290,0.850790
923253733,-3.233736,0.487650,4.372371,-0.477492,0.249368,0.843702
923273742,-2.074262,-1.579390,2.399482,-0.503452,0.253684,0.836248
923313760,-5.767816,-4.520775,0.121624,-0.521194,0.233031,0.833341
923333770,-3.515425,-3.697662,2.936853,-0.472559,0.196886,0.847279
923353780,0.684531,-1.613288,6.064591,-0.487201,0.238611,0.837797
923373789,0.377667,-1.909219,6.621443,-0.478259,0.255778,0.832272
923393799,-0.234121,-3.594904,5.262626,-0.484952,0.242385,0.842707
923413808,1.947455,-4.827418,2.102674,-0.481265,0.208439,0.861237
923433818,8.448550,-1.757519,1.950667,-0.491618,0.259395,0.846132
923453828,7.344515,0.464217,2.130819,-0.491932,0.278805,0.835733
923473839,6.569153,3.515511,3.966487,-0.491758,0.257323,0.839403
923493849,7.533987,5.489158,4.387257,-0.487747,0.264998,0.838775
923513858,6.154575,6.786690,4.832469,-0.487340,0.254434,0.840564
923533868,4.297665,5.216060,3.509751,-0.472169,0.266575,0.843185
923553877,-0.847360,3.558732,1.100717,-0.481153,0.298412,0.826028
923573887,-5.143381,1.578009,-0.617042,-0.493624,0.282849,0.829479
923593895,-3.988185,1.722756,-2.007821,-0.491426,0.268969,0.836887
923613905,-2.798533,1.295883,-4.297694,-0.493734,0.280383,0.833925
923633915,-2.499255,0.637518,-6.161626,-0.488416,0.270111,0.835428
923653925,-0.755648,-0.269838,-7.703153,-0.481270,0.268286,0.832131
923673934,-0.613868,-2.722754,-8.808902,-0.469369,0.287206,0.835051
923693944,-2.964327,-4.559203,-10.528094,-0.472230,0.269035,0.842192
923713953,-3.251379,-3.999184,-10.855227,-0.466876,0.233643,0.847810
923733963,-2.373407,-5.916106,-10.714085,-0.499019,0.190189,0.844342
923753973,0.700591,-6.526770,-9.626518,-0.514406,0.170613,0.833980
923773984,7.146690,-5.021616,-5.560209,-0.515215,0.177902,0.834364
923793994,9.270581,-6.311920,-4.219688,-0.454172,0.265937,0.845947
923814003,7.120019,-6.420565,-3.346718,-0.512901,0.289141,0.828643
923854023,-1.104093,-7.342126,-2.287893,-0.476407,0.270935,0.835122
923874032,1.413367,-4.271832,-1.138243,-0.498540,0.250938,0.849220
923894040,2.406940,-2.424792,-0.879709,-0.471552,0.242795,0.853118
923914050,2.833022,-1.804807,0.169905,-0.475076,0.244947,0.850589
923934060,5.327005,-0.282989,1.637834,-0.492525,0.225929,0.847049
923954070,8.971366,3.092632,4.372054,-0.480955,0.255700,0.842275
923974079,8.880383,4.529835,6.372969,-0.478465,0.286427,0.836530
923994089,8.825029,6.625429,7.015162,-0.492726,0.273628,0.836903
924014099,6.288280,6.130145,7.054170,-0.470405,0.290487,0.838425
924034108,3.136447,4.360576,5.786495,-0.466673,0.284247,0.838034
924054118,2.137696,4.324687,5.450068,-0.490461,0.273048,0.837168
924074129,0.137480,3.462964,5.395807,-0.457571,0.285112,0.838373
924094138,-2.169984,1.594108,5.096682,-0.483240,0.262569,0.837483
924114148,-5.056292,-1.681233,4.506638,-0.473828,0.265331,0.841188
924134158,-8.723899,-4.941000,3.401475,-0.477532,0.267944,0.837298
924154167,-5.510737,-2.500176,3.462112,-0.490039,0.263945,0.837143
924174191,-3.695084,-1.170401,3.702509,-0.478837,0.257945,0.841274
924194185,-1.100639,0.795927,4.285872,-0.485547,0.253416,0.837285
924214195,2.106576,2.602760,6.069852,-0.478341,0.248303,0.838341
924234205,2.582299,2.152777,6.341455,-0.481117,0.278460,0.836881
924254214,0.374360,0.949204,5.624945,-0.477115,0.292875,0.833090
924274224,-1.324547,0.683986,5.284724,-0.476717,0.274206,0.838220
924294234,0.201171,1.670536,5.746397,-0.483122,0.264385,0.838123
924314244,1.228592,2.078477,5.791587,-0.481538,0.273546,0.839777
924334253,0.459070,0.864537,4.428350,-0.477184,0.280129,0.837328
924354264,-0.942898,-0.901685,3.229640,-0.482277,0.294132,0.833744
924374274,-3.478245,-2.209282,1.712748,-0.484713,0.295534,0.833482
924394283,-4.372893,-3.211330,-0.480657,-0.482561,0.279025,0.837523
924414293,-4.283217,-3.169545,0.232626,-0.479801,0.262255,0.834110
924434303,-1.885534,-0.379686,3.334053,-0.470707,0.255106,0.837609
924454312,1.489751,3.601420,7.489836,-0.469847,0.291665,0.837154
924474326,0.003456,4.397964,7.268138,-0.466416,0.315341,0.843110
924494330,-2.177520,1.556619,0.330056,-0.472544,0.301264,0.834279
924514339,-4.067955,2.114156,-4.744144,-0.470032,0.284385,0.838862
924554359,-3.737572,4.299469,-5.036205,-0.491654,0.245778,0.835739
924574368,-3.251534,1.097015,-4.139071,-0.495073,0.254188,0.839314
924594378,-4.006688,-0.885053,-4.382030,-0.483977,0.275134,0.837699
924614387,-4.603774,-2.243649,-4.801033,-0.466379,0.285880,0.837856
924634397,-4.780411,1.207067,-6.149399,-0.485818,0.280073,0.837808
924654408,-6.016446,3.247212,-6.577394,-0.478655,0.285516,0.837800
924674418,-6.567556,2.552799,-7.815535,-0.482263,0.253909,0.838821
924694428,-5.554314,2.893278,-6.562447,-0.482339,0.240433,0.843875
924714437,-5.942184,9.710290,-2.387921,-0.491746,0.257680,0.841857
924734447,-3.562332,13.481998,-1.262324,-0.526101,0.274695,0.827010
924754457,0.066800,10.598438,0.454221,-0.535994,0.235632,0.827303
924774465,3.047441,6.464430,5.084059,-0.512945,0.276818,0.810530
924794475,-2.963345,3.940262,8.784061,-0.438834,0.280021,0.835488
924814484,-3.988250,1.416330,5.345714,-0.473364,0.193559,0.836915
924834494,-1.426815,0.465654,4.614551,-0.493534,0.234985,0.833991
924854504,-0.514684,0.994592,5.082197,-0.483492,0.257387,0.837652
924874513,1.230584,2.123825,7.107330,-0.553907,0.263204,0.821429
924894523,0.724945,2.134896,12.173402,-0.517015,0.298808,0.808417
924914532,-2.548954,1.989488,16.543804,-0.480820,0.280168,0.808717
924934542,-4.178000,1.853180,16.728619,-0.509561,0.192555,0.834748
924954553,-2.805059,0.332231,14.242814,-0.505381,0.232796,0.833566
924974563,-2.436786,-0.827150,10.537557,-0.485227,0.256040,0.840925
924994573,-1.368054,-0.517074,7.524485,-0.442841,0.263570,0.817921
925034592,-3.579490,3.541346,5.917609,-0.479842,0.310706,0.813880
925054602,-5.546295,3.970134,6.316171,-0.506376,0.259093,0.836907
925074610,-0.863697,3.083700,6.331110,-0.500468,0.208840,0.851663
925094620,4.423741,2.594112,5.457526,-0.494560,0.195102,0.853428
925114629,12.786240,2.772798,2.460875,-0.508939,0.229364,0.844017
925134639,18.945148,2.425954,5.280426,-0.542133,0.247773,0.845525
925154648,24.040098,0.716865,8.017793,-0.511919,0.270062,0.847673
925174658,28.329269,-3.110731,7.417297,-0.522007,0.241520,0.827186
925194668,31.105356,-3.948087,5.603885,-0.485803,0.254588,0.808667
925214677,34.200127,-0.500316,5.219162,-0.446053,0.253677,0.793372
925234687,37.621166,4.629738,4.055673,-0.442976,0.261388,0.784569
925254698,38.801342,14.171247,5.890441,-0.417095,0.276602,0.769357
925274708,32.199860,24.440664,6.489547,-0.397563,0.336648,0.795075
925294717,13.307880,27.970589,6.356990,-0.504941,0.425913,0.803071
925314727,1.383751,22.936440,0.999657,-0.520682,0.435472,0.785514
925334737,-2.570402,20.293295,2.396032,-0.562969,0.411049,0.797571
925354746,7.530030,16.106461,6.378314,-0.590699,0.340096,0.813102
925374755,14.418496,16.152597,6.459419,-0.519538,0.396855,0.796226
925394764,13.906814,10.711616,-4.812129,-0.571200,0.394805,0.794011
925414774,22.681583,-2.666384,-25.460777,-0.616489,0.284224,0.859376
925434784,51.763000,-24.465765,-66.737473,-0.671304,0.224946,0.911271
925454793,104.235931,-78.386742,-157.335297,-1.033468,-0.122306,0.982606
925474802,194.832153,-188.418655,-322.013153,-1.828583,-0.160908,0.669202
925494812,239.975922,-294.829407,-486.564453,-2.445754,0.415726,0.087517
925514822,217.176849,-328.375488,-577.562744,-2.335356,1.092525,-0.476350
925534832,195.313965,-266.663116,-602.389221,-1.780439,1.391736,-0.895567
925554843,210.438110,-168.333176,-574.496704,-1.727272,1.522154,-0.769275
925574852,243.117676,-82.916000,-513.963989,-1.479006,1.417696,-0.368568
925594862,243.853104,-41.019890,-468.146149,-1.467881,1.240523,0.029293
925614872,223.947464,-17.818268,-449.195190,-1.160522,1.034989,0.209043
925634881,199.978867,-0.103162,-430.486450,-0.885651,1.055565,0.380831
925654891,185.876816,4.470912,-398.254150,-0.669294,1.182432,0.590953
925674899,174.710648,1.906320,-358.215057,-0.252981,1.265571,0.670164
925694909,167.196274,-0.368068,-306.832123,-0.053215,1.242744,0.819257
925714919,153.249207,-14.748396,-259.423645,0.059179,1.141561,0.953145
925734928,137.801407,-33.770027,-214.351517,0.111280,1.041710,0.957553
925754938,119.220581,-42.494892,-170.152908,0.196164,0.958483,0.824429
925774948,110.267563,-32.144363,-127.526138,0.234141,0.846859,0.581973
925794957,128.438660,3.708010,-92.727882,0.271596,0.729256,0.401109
925814967,180.370987,10.832467,-17.090092,0.029746,1.296166,2.012275
925834977,109.526566,-150.008652,35.397335,-0.671853,0.870002,1.294448
925874997,-31.573002,-115.972931,26.550270,-1.024708,-0.054754,0.847365
925895007,-41.827251,-64.351463,46.660042,-0.281714,0.768347,1.021989
925915017,-20.500677,-15.424081,-1.626425,-0.009851,-0.056548,1.035352
925935026,17.568012,15.648429,17.064232,-0.538268,0.053261,0.863828
925955036,26.624088,20.083847,19.478622,-0.501159,0.321600,0.838140
925975045,18.404179,13.599300,12.590029,-0.500183,0.348904,0.828212
925995054,9.770439,9.273440,6.002628,-0.495128,0.303218,0.840984
926015063,4.071373,3.930998,1.768877,-0.480213,0.319489,0.831258
926055082,1.797181,-1.361580,-2.225843,-0.482479,0.257085,0.843009
926075092,-2.344220,-3.205577,-3.374651,-0.481517,0.289385,0.835729
926095102,-6.554095,-6.437028,-6.847045,-0.471732,0.279496,0.839673
926115112,-7.171828,-6.642483,-7.711209,-0.471818,0.245371,0.844129
926135121,-6.150108,-6.569165,-7.747164,-0.466187,0.272864,0.839458
926155132,-5.559078,-7.374037,-7.628032,-0.479275,0.265499,0.842567
926175142,-4.845397,-8.434540,-7.226680,-0.471622,0.238531,0.849472
926195152,-2.183913,-8.460307,-6.227516,-0.479574,0.235191,0.849760
926215161,-1.674803,-5.693443,-6.042985,-0.457729,0.250511,0.851097
926235171,-2.335072,5.412405,-5.748154,-0.463177,0.234178,0.865610
926255181,-4.820766,17.461023,-8.531257,-0.490300,0.315774,0.847725
926275189,-11.905026,20.077045,-14.153566,-0.541081,0.361874,0.831092
926295199,-14.358759,17.104469,-19.468721,-0.543031,0.389158,0.844433
926315208,-16.937094,16.013060,-25.869122,-0.614211,0.376415,0.866964
926335218,-10.030415,8.135633,-56.858818,-0.793002,0.148110,0.756605
926355228,76.704475,-1.950385,-119.286232,-1.011179,-0.001765,0.587409
926375237,125.733810,-28.544043,-163.376633,-0.964272,0.676595,0.774084
926395247,130.785507,-57.055725,-156.437119,-0.913299,0.727059,0.637948
926415257,135.570984,-59.227802,-160.496201,-0.611557,0.372818,0.430712
926435266,166.445557,-53.271576,-192.322342,-0.527210,0.008612,0.559107
926455277,153.696274,-60.219257,-228.440460,-0.410888,0.031929,0.652411
926475287,128.634811,-42.334007,-209.690445,0.167076,0.226248,0.411951
926495297,91.347427,18.515785,-144.333847,0.497288,0.346235,0.354307
926515306,16.453270,12.831814,-74.737694,-0.242874,0.832465,2.100131
926535316,-42.955097,-136.326126,-23.946445,-0.328643,-0.558680,1.460168
926555326,-49.779564,-79.985649,-1.206006,-1.020444,1.247742,0.903093
926595344,21.094065,5.384130,13.786957,-0.926121,0.241606,0.855187
926615353,27.130249,2.175009,8.293696,-0.299632,0.267562,0.845493
926635363,15.541767,1.278075,7.539834,-0.528910,0.419332,0.811303
926655372,-0.082158,-2.284126,0.787394,-0.509590,0.331938,0.829378
926675382,-5.678986,-4.484111,-3.171194,-0.446879,0.254185,0.845986
926695392,-6.286330,-4.819366,-3.171036,-0.473835,0.214068,0.858503
926715401,-2.451819,-3.761720,-0.940960,-0.471260,0.182919,0.858144
926735411,1.883543,-1.508747,1.380753,-0.465332,0.218591,0.854855
926755422,1.973598,-0.939042,1.608207,-0.464701,0.272263,0.851991
926775431,-2.187073,-1.851070,-0.430155,-0.480036,0.289524,0.843448
926795442,-7.444087,-4.116467,-2.641086,-0.475310,0.254411,0.850705
926815451,-8.606543,-5.201854,-3.324942,-0.464629,0.215381,0.860751
926835461,-6.581151,-3.222537,-2.546737,-0.463688,0.190526,0.863047
926855470,-3.914759,2.210317,-1.895322,-0.452646,0.187732,0.860191
926875479,-1.418681,7.004612,1.060609,-0.455463,0.214888,0.858360
926895488,-1.848603,18.715191,0.561822,-0.480620,0.238941,0.847865
926915498,1.689370,12.754725,-2.534154,-0.522961,0.228122,0.841874
926935508,4.609600,6.012902,-2.451683,-0.487630,0.237307,0.851425
926955517,6.499221,7.384684,-1.520468,-0.491973,0.211438,0.853916
926975527,11.406242,8.100895,-0.877066,-0.490469,0.173462,0.860630
926995537,16.514526,3.977463,-1.925451,-0.475010,0.194988,0.856186
927015546,16.183577,1.275999,-3.526671,-0.476437,0.211763,0.850418
927035556,13.019694,0.254395,-7.784982,-0.440920,0.287792,0.832515
927055567,7.164832,6.160314,-10.827890,-0.374928,0.396100,0.855856
927075577,1.320582,22.406088,-21.173555,-0.398495,0.410718,0.928290
927095586,-15.040010,58.026802,-36.158871,-0.451314,0.685596,1.063987
927115596,-19.608103,104.802589,-66.713989,-0.611122,0.500720,1.106514
927135605,-26.681559,132.657211,-97.679535,-0.360694,1.262688,1.252819
927155624,-33.018028,116.573669,-44.972576,0.209330,1.887876,1.417275
927175624,-10.333693,58.306198,92.819672,0.752118,1.543310,1.224251
927195633,36.163815,37.098267,119.129555,1.072168,0.388428,1.424720
927215643,72.599449,-39.270058,65.330193,0.694528,-0.068712,1.815842
927235653,81.779991,-116.782104,15.092175,0.606342,-0.110176,1.787194
927255662,76.667290,-168.137146,7.987855,0.293484,0.122961,1.589631
927275672,69.827820,-189.506393,27.388485,-0.095085,0.306591,1.376084
927295682,62.625954,-192.062424,44.142651,-0.516262,0.457920,1.107851
927315691,48.259007,-166.970840,64.266396,-0.689315,0.604766,0.768090
927335702,27.715576,-107.183311,101.273521,-0.738743,0.572861,0.624500
927355712,3.951312,-69.678497,155.962646,-1.304563,0.373069,0.905435
927375721,-33.483932,-59.663536,176.967667,-1.433253,-0.134753,0.538982
927395731,-68.019005,-25.409977,146.113495,-1.721694,-0.443638,0.077191
927415741,-77.039833,7.960007,82.885864,-1.961704,-0.557384,-0.281116
927435751,-43.942509,41.267597,25.550201,-1.846896,-0.527764,-0.290649
927455775,-22.663168,68.492455,-21.912727,-1.703441,-0.537699,-0.125909
927475768,24.939276,141.794083,-144.404327,-0.391299,0.273640,0.747739
927495778,-48.974323,165.121109,-157.497391,0.060434,1.445343,1.849100
927515788,-3.318103,139.233582,-35.204399,-1.322034,0.528185,0.321357
927535797,22.023634,141.301361,4.664458,-0.355463,0.132976,1.099916
927555807,10.607925,84.113388,-58.055130,-1.290753,0.470252,1.259645
927575817,-57.090057,18.248667,-36.770973,-1.170028,0.891971,0.976139
927595826,-56.895844,-1.389058,-8.052775,-0.536091,-0.029830,0.932030
927615836,-26.280407,-6.077207,-4.449719,-0.635103,0.290192,0.839911
927635846,-14.411066,-2.376466,3.282368,-0.481143,0.090448,0.861209
927655857,-2.266479,-2.396010,2.679650,-0.463876,0.241895,0.841280
927675867,4.763811,-2.898613,1.502445,-0.555316,0.222607,0.837867
927695876,10.828050,-0.995728,1.425110,-0.477375,0.274787,0.828774
927715886,10.632737,-0.028121,0.137004,-0.503173,0.270268,0.824659
927735896,13.492837,2.472675,1.323585,-0.489960,0.257128,0.834218
927755916,19.476971,4.808022,0.494593,-0.518210,0.253657,0.825842
927775913,30.038460,10.383862,2.005222,-0.501207,0.239840,0.829937
927795923,34.272346,12.301982,2.050980,-0.504233,0.300317,0.819923
927815933,29.030888,10.756205,1.036854,-0.485901,0.355307,0.804380
927835943,22.768263,9.946478,0.922750,-0.506834,0.342271,0.794323
927855952,23.190329,10.000478,-0.126869,-0.522572,0.335417,0.790808
927875962,19.004677,9.125528,-3.836463,-0.497064,0.375458,0.780658
927895971,10.849429,6.695372,-6.360330,-0.513553,0.373069,0.779065
927915981,5.989806,2.961622,-7.766644,-0.525592,0.356138,0.781511
927935990,-3.278610,-4.519769,-12.945647,-0.495444,0.381444,0.778578
927956001,-12.064964,-11.751699,-15.957014,-0.546285,0.351253,0.783468
927976011,-23.268116,-21.487404,-20.134104,-0.495010,0.391239,0.787234
927996021,-32.831333,-25.894176,-21.906246,-0.514024,0.349671,0.788366
928016030,-30.378429,-21.002098,-17.176683,-0.524740,0.251979,0.809230
928036040,-20.340460,-13.543162,-13.679278,-0.480089,0.273897,0.836594
928056068,-11.109490,-1.927528,-12.554668,-0.484352,0.243526,0.855065
928076058,1.948965,14.045033,-10.942039,-0.478175,0.220754,0.865711
928096068,14.818975,34.559437,-6.342698,-0.477458,0.208590,0.885850
928116078,27.421097,60.254032,-2.925801,-0.466308,0.211131,0.894183
928136087,40.252094,89.035484,0.967914,-0.462677,0.269833,0.898683
928156097,41.244862,128.314224,0.901589,-0.490144,0.366934,0.935356
928176106,44.524799,173.085358,-9.830629,-0.538421,0.431913,0.853433
928196116,56.641396,215.055054,-33.452881,-0.588737,0.392713,0.890464
928216126,51.865467,258.955505,-55.755325,-0.546564,0.379814,0.888125
928236135,44.780132,313.613922,-70.420326,-0.591532,0.416494,0.824475
928256146,29.141600,385.062195,-94.254539,-0.741087,0.554920,0.678525
928276156,6.697301,453.809784,-126.012505,-0.888292,0.740388,0.956293
928296166,-53.805984,417.337097,-116.006248,-1.649997,1.333446,1.558391
928316175,-87.382065,192.249985,-62.019070,-2.073328,0.938444,2.064113
928336185,71.607590,-42.215790,-68.079910,-0.272210,0.238984,2.188301
928356202,49.272007,-133.433472,-109.313179,0.027530,0.995631,1.571920
928376203,60.729336,-195.734756,-100.943100,0.155312,0.721752,1.024030
928396212,54.364857,-224.361572,-50.157928,0.164631,1.061621,0.871125
928416222,39.991264,-245.288071,5.237458,-0.028115,0.863469,0.788325
928436232,46.486153,-257.390228,53.946213,-0.062914,0.663435,0.705052
928456241,54.527847,-258.257141,82.053352,-0.288540,0.465841,0.798534
928476251,67.262390,-269.888519,85.945976,-0.555456,0.306274,0.950206
928496261,82.307335,-291.208466,70.161774,-0.763614,0.359220,1.148948
928516271,78.401688,-313.898346,59.634941,-0.974282,0.635838,1.202067
928536281,63.824718,-292.292084,93.110107,-0.882297,0.560841,0.979897
928556291,91.242973,-229.062805,157.823914,-1.352637,0.342640,1.152830
928576301,43.997181,-192.734192,171.789703,-1.958816,0.391598,1.169287
928596310,-24.835712,-159.213058,172.696579,-2.304284,0.337578,0.663064
928616320,-46.851170,-109.508049,175.415527,-2.550590,-0.016264,0.009677
928636330,-19.799185,-56.484238,174.816193,-2.639527,-0.686126,-0.568110
928656338,13.925435,1.844895,123.195999,-2.843096,-1.239671,-0.704846
928676348,8.342891,43.370693,41.543156,-2.516563,-1.257504,-0.472067
928696357,-0.649840,83.763069,-63.140408,-1.927165,-1.123563,-0.345535
928716367,7.500597,218.361557,-248.118790,1.336297,1.223377,1.622961
928736377,46.441025,155.207703,-42.907475,-1.597775,0.825355,0.803233
928756386,-111.728706,100.956451,-105.422493,-2.306918,1.484150,1.332016
928776396,-121.561592,21.901630,-69.021858,-0.340439,-0.178303,1.211023
928796405,-73.397385,-12.840536,-32.918358,-0.945373,0.408951,0.773711
928816415,-44.745010,-18.401659,-17.550060,-0.470872,0.049439,0.865254
928836426,-21.825211,-21.366602,-5.826538,-0.638166,0.278392,0.813449
928856436,-13.853962,-17.857441,-3.547853,-0.498652,0.192482,0.835442
928876446,-8.224769,-14.380040,-3.553150,-0.505272,0.225863,0.840272
928896455,-4.728559,-12.390909,-4.106194,-0.531922,0.253667,0.830063
928916465,-5.142614,-11.594024,-4.951396,-0.513307,0.286790,0.825640
928936475,-6.007681,-10.087252,-3.062023,-0.492780,0.249612,0.836933
928956483,-3.763648,-7.412892,-0.863705,-0.479545,0.217545,0.848625
928976493,-0.036001,-4.861867,0.198644,-0.472840,0.237936,0.840388
928996502,2.096487,-3.614588,0.985872,-0.485222,0.249119,0.843361
929016512,1.559378,-4.141289,-0.227133,-0.471700,0.269040,0.837102
929036522,0.233865,-5.846822,-1.783806,-0.481748,0.256887,0.845097
929056531,-0.290313,-6.521331,-2.406483,-0.463452,0.259075,0.844049
929076541,-1.106647,-6.509612,-3.156560,-0.480998,0.258604,0.845008
929096551,-1.567989,-7.239723,-4.906493,-0.463072,0.259055,0.849317
929116560,-1.217262,-6.851932,-6.306620,-0.473139,0.253835,0.849788
929136571,-1.634964,-6.708599,-6.903544,-0.478720,0.258289,0.847999
929156581,-2.529214,-7.104166,-7.559521,-0.474310,0.247756,0.850594
929176591,-2.684243,-7.157325,-8.104346,-0.454441,0.244084,0.854978
929196600,-1.285567,-5.659826,-6.826164,-0.467647,0.235363,0.855449
929216610,-0.521706,-4.508850,-5.790662,-0.468848,0.233925,0.855268
929236619,1.348187,-1.747939,-3.544958,-0.468776,0.239384,0.854645
929256628,3.236824,2.451680,-2.318499,-0.475260,0.256024,0.859432
929276638,4.897847,7.074408,-3.558641,-0.473149,0.263443,0.862897
929296647,5.939448,15.068343,-5.393949,-0.445094,0.272926,0.869562
929316657,4.184009,38.046227,-9.518736,-0.377061,0.285425,0.887383
929336666,2.283006,65.894943,-10.234480,-0.432567,0.279683,0.892712
929356676,-3.484905,65.742691,-10.075215,-0.617038,0.324552,0.886012
929376686,4.311451,58.133190,-22.501482,-0.526670,0.325589,0.916187
929396695,16.974129,49.381737,-35.027180,-0.515920,0.340451,0.946087
929416705,24.478884,28.452635,-33.372787,-0.212788,0.449696,1.108204
929436716,26.458042,-13.015591,-2.336819,0.393433,0.749354,1.357045
929476735,26.588747,-78.511032,40.577541,-0.082806,0.339396,1.152607
929496750,32.189568,-99.057236,32.799564,-0.357063,0.331821,0.946503
929516755,25.871479,-92.715973,38.043949,-0.519889,0.316491,0.743776
929536764,13.855865,-75.861504,50.508080,-0.724535,0.137931,0.578920
929556773,4.467953,-45.911591,47.956177,-0.898831,-0.115609,0.389523
929576782,-7.754200,-6.701256,26.994022,-0.955268,-0.296895,0.253025
929596792,-11.747596,34.720798,-3.589010,-1.044519,-0.422753,0.050343
929616802,0.170900,95.901184,-55.966488,-0.724023,-0.233583,-0.071518
929636811,-25.711145,121.306320,-89.151794,-0.443774,1.212610,1.523438
929656821,-122.845551,-30.244961,-50.648918,-1.349476,0.786452,1.419997
929676830,-42.274025,-39.737316,-34.030365,-0.898791,-0.269463,0.803287
929696840,-10.152991,-19.235655,-4.416575,-0.274202,0.233841,0.897670
929716850,7.877439,-7.564144,0.465507,-0.509879,0.033993,0.869782
929736861,13.835424,-1.247105,7.171916,-0.462668,0.260947,0.853864
929756871,13.492581,0.927199,8.786909,-0.492316,0.255133,0.844851
929776880,9.711893,0.511531,6.132462,-0.498266,0.281176,0.834485
929796890,3.971134,-2.272913,2.312219,-0.492203,0.292364,0.835586
929816899,-1.149992,-5.155562,-0.314195,-0.475578,0.248875,0.847421
929836909,-1.458892,-4.974338,-0.395949,-0.467287,0.221436,0.856594
929856917,1.063592,-3.034935,0.796662,-0.461720,0.222990,0.856854
929876927,2.358479,-2.055756,1.954913,-0.466899,0.243447,0.855740
929896937,1.418693,-1.582297,1.784846,-0.469990,0.258247,0.849427
929916946,-0.362817,-1.487846,0.919928,-0.473372,0.263574,0.849359
929936956,-2.016707,-1.874609,-0.715435,-0.468476,0.255859,0.849871
929956998,-2.649945,-1.883377,-1.484962,-0.472648,0.242540,0.852484
929977007,-2.509884,-1.165672,-0.959795,-0.472970,0.231621,0.855183
929997017,-1.756329,-0.458614,-0.303516,-0.469315,0.233390,0.853814
930017027,-1.239703,0.555498,0.111807,-0.470198,0.235315,0.853549
930037038,-0.754615,1.365953,0.364977,-0.470259,0.237683,0.852737
930057048,-0.600529,1.615434,0.175548,-0.471885,0.238066,0.854469
930077057,-0.087875,1.649887,-0.146566,-0.471835,0.235616,0.852101
930097067,0.946531,1.861852,-0.241430,-0.475773,0.233032,0.853650
930117077,0.463842,2.938908,-0.138168,-0.471010,0.235874,0.853007
930137101,-0.999191,3.856991,0.120444,-0.466235,0.239534,0.852730
930157094,-1.295079,2.309581,-0.224361,-0.462998,0.243211,0.854547
930177104,-0.735374,0.574183,-1.046552,-0.462629,0.251037,0.851386
930197114,-0.858270,-0.258510,-1.535883,-0.481451,0.231404,0.847303
930217123,0.030409,-0.038261,-0.472051,-0.474386,0.229110,0.849547
930237133,0.878820,0.462703,0.239773,-0.480687,0.226561,0.851104
930257143,1.512370,0.788263,0.801419,-0.479333,0.231993,0.853386
930277152,1.915392,0.545311,0.979008,-0.468869,0.232655,0.854174
930297162,2.812381,0.543934,0.769718,-0.477500,0.233517,0.851749
930317173,2.646473,-0.027671,0.171382,-0.474650,0.235840,0.851837
930337183,1.949661,-0.843577,-0.769080,-0.473717,0.224917,0.849081
930357192,3.008164,-2.667574,-2.302701,-0.474346,0.210167,0.857132
930377202,4.255319,-4.812632,-4.126661,-0.476046,0.212746,0.854872
930397212,5.337159,-6.597178,-4.428705,-0.468582,0.213177,0.856304
930417222,6.170899,-7.744575,-3.788039,-0.461693,0.239836,0.850537
930437230,6.161517,-5.798699,-2.427027,-0.470217,0.262261,0.846803
930457239,4.904568,-5.256400,-2.376371,-0.466735,0.257109,0.848869
930477249,3.308428,-4.442096,-1.949299,-0.454953,0.274398,0.850059
930497259,-1.383780,-5.080598,-2.101983,-0.470535,0.299663,0.843809
930517268,-6.094432,-6.458213,-3.216067,-0.464805,0.271263,0.852261
930537278,-6.749979,-5.400749,-2.980179,-0.456357,0.250207,0.855090
930557287,-6.067790,-4.140535,-2.556943,-0.457556,0.241391,0.858706
930577297,-5.501872,-3.340822,-2.077626,-0.462410,0.246111,0.855370
930597307,-5.048285,-2.621195,-2.319309,-0.454776,0.251809,0.859451
930617318,-5.370978,-1.989436,-3.267881,-0.456982,0.243474,0.858800
930637327,-5.586187,-1.855012,-3.664043,-0.463272,0.228279,0.860689
930657337,-4.821256,-1.331589,-2.121503,-0.457198,0.212988,0.863994
930677347,-3.537496,-0.113114,0.173378,-0.456054,0.210242,0.863983
930697357,-3.087090,0.333655,2.390397,-0.454463,0.220133,0.864640
930717366,-4.235186,-0.800153,4.008757,-0.457494,0.231645,0.862679
930737375,-6.850117,-2.313942,4.588375,-0.458926,0.246861,0.861813
930757384,-9.349452,-3.656385,3.336220,-0.453622,0.248778,0.863801
930777393,-10.583460,-4.494516,-0.132007,-0.458748,0.238657,0.866971
930797404,-10.202381,-4.402950,-2.890516,-0.450511,0.222429,0.868541
930817413,-9.642243,2.581199,-4.503298,-0.441596,0.207352,0.878108
930837423,-7.600327,29.067690,-3.827425,-0.382884,0.218116,0.916124
930857433,-13.882939,53.898895,-2.550580,-0.452059,0.220380,0.962221
930877442,-47.214504,74.061378,8.689232,-0.424664,0.343390,1.076032
930897452,-74.958405,97.351761,11.641017,-0.444949,0.427392,1.140455
930917463,-101.727875,127.963020,8.909574,-0.473843,0.624375,1.187109
930937473,-168.507080,143.925949,27.991606,-0.594723,0.907257,1.122855
930957482,-231.492310,131.033417,118.481018,-0.640827,1.538877,0.900619
930977492,-240.279678,100.047722,327.827545,-0.476981,1.939267,0.462464
930997502,-240.309723,116.156174,392.025574,-0.257724,0.786418,0.427990
931017511,-200.428024,90.034096,383.425232,-0.097688,0.377188,0.712514
931037520,-147.743683,56.168686,329.321106,0.214285,-0.093003,0.874494
931057529,-129.915955,18.633678,276.408295,0.036396,0.406147,1.079551
931077539,-158.956741,-16.428429,267.959320,-0.115093,0.783432,0.990186
931097549,-175.244034,-40.565777,274.246674,-0.306946,0.838340,0.876769
931117558,-187.372070,-56.336693,268.329956,-0.700956,1.214550,0.729422
931137568,-205.720795,-61.599442,277.739838,-1.093874,1.725461,0.349349
931157577,-216.309647,-33.035912,341.637421,-1.210925,1.975058,-0.112255
931177587,-220.025391,28.132231,447.426788,-1.366185,1.860606,-0.369957
931197597,-221.983398,92.175552,533.079285,-1.624574,1.424731,-0.356307
931217608,-197.037506,142.934555,566.164612,-1.689488,0.318725,-0.345661
931237618,-142.942245,196.227966,515.701111,-1.846815,0.197865,0.031853
931257627,-148.831329,182.302536,387.674103,-2.303546,-0.115262,0.145806
931277637,-82.783241,148.507278,250.130783,-1.391375,-0.189002,0.048784
931297646,-15.588110,144.274048,154.447784,-1.014894,0.155419,0.004386
931317656,26.767250,171.552917,117.388969,-0.555553,0.443127,-0.008872
931337664,-51.416328,168.394775,61.334518,-1.170767,0.481418,1.013715
931357673,-137.893036,30.220394,-42.665421,-1.145857,0.263508,1.633411
931377683,-107.611046,-68.840271,-27.567638,-0.773899,1.150693,0.588001
931397693,-103.180557,-72.813354,-17.751659,-0.798270,0.308922,0.727135
931417702,-71.102081,-85.396080,-25.318546,-0.565332,0.131343,0.765338
931437712,-57.771652,-69.054520,-8.213910,-0.610763,0.034867,0.897433
931457722,-49.028530,-43.365074,-6.538751,-0.223324,0.284501,0.959798
931477732,-26.320841,-18.535810,1.741005,-0.472421,0.052134,0.852454
931497741,-2.042756,0.162193,15.272824,-0.410607,0.205406,0.856022
931517752,7.405082,7.239918,9.343322,-0.521185,0.267789,0.830521
931537762,7.955116,8.924343,9.874868,-0.496388,0.336598,0.816630
931557772,2.456124,8.226670,8.241037,-0.507706,0.339859,0.816308
931577782,-2.140701,8.296768,8.667546,-0.500372,0.288137,0.828694
931597791,-2.847391,10.743304,14.923982,-0.493085,0.275562,0.830094
931617801,-3.514401,11.728587,20.069613,-0.460608,0.274131,0.845078
931637809,-3.611333,12.611464,21.461433,-0.499685,0.271383,0.830376
931657818,-4.003877,11.798859,19.670721,-0.497711,0.276176,0.830382
931677828,-7.919363,7.888494,17.633270,-0.491419,0.293118,0.821502
931697838,-10.915872,6.990431,18.557598,-0.518984,0.285899,0.816204
931717848,-12.945704,6.741930,20.071920,-0.482292,0.258550,0.838469
931737857,-13.724955,4.300403,15.162493,-0.492699,0.221401,0.840223
931757867,-14.435694,0.227905,10.545272,-0.477788,0.233350,0.847660
931777876,-15.703217,-4.457664,4.835739,-0.481298,0.264352,0.840389
931797886,-16.075966,-5.669242,1.875302,-0.503344,0.295351,0.834991
931817897,-17.234974,-5.602892,0.411276,-0.494528,0.261373,0.837241
931837907,-16.827600,-5.861453,-1.965609,-0.484741,0.245946,0.836718
931857916,-15.385403,-5.188136,-2.837338,-0.491030,0.195523,0.846876
931877926,-11.877103,-3.134280,-2.728287,-0.493535,0.190082,0.854139
931897935,-9.120696,-1.001209,-1.970943,-0.492408,0.228114,0.845691
931917946,-7.238954,0.384067,-2.232797,-0.485175,0.205264,0.845793
931937954,-1.283754,7.368528,-0.852175,-0.514534,0.246757,0.868247
931957964,-1.701330,13.546762,1.435372,-0.508073,0.300407,0.841106
931977973,-5.512005,20.187080,12.932419,-0.490518,0.446103,0.793448
931997983,-11.570113,30.357681,35.319695,-0.499977,0.345829,0.820208
932017992,-13.475902,39.668179,61.914562,-0.590293,0.494256,0.824305
932038002,-30.372015,37.113068,98.625488,-0.613928,0.592577,0.860153
932058012,-64.729004,30.438770,135.972961,-0.675204,0.356214,0.866548
932078021,-72.226158,27.472572,139.963943,-0.583055,0.074123,0.896361
932098032,-62.604805,15.030661,121.751938,-0.533383,-0.004581,0.932268
932118042,-52.072266,2.654726,96.976471,-0.404739,-0.013570,0.894247
932138052,-45.931034,-3.625973,77.050560,-0.409703,0.009022,0.808635
932158061,-46.072254,-4.509365,55.785675,-0.463184,0.045773,0.697488
932178071,-43.247272,5.303402,36.548237,-0.349438,0.099163,0.480941
932198081,-36.325920,37.270557,16.848438,-0.217836,0.144641,0.368269
932218089,-27.947502,75.540176,15.543732,-0.061180,0.283502,0.303100
932238098,-41.777096,112.611160,18.953178,-0.206583,0.550960,1.339963
932258108,-44.104561,-71.629395,31.923592,-1.925255,-0.750164,1.316210
932278118,27.092129,-89.543167,-23.642162,-0.228820,0.942114,0.590946
932298127,-30.533691,-63.645016,4.696286,-1.021057,0.423270,1.007944
932318137,-14.795936,-22.056871,-11.909694,0.208781,0.331892,0.984536
932338147,0.330963,4.658292,1.427180,-0.658765,-0.001395,0.877675
932358157,14.962443,7.937474,8.432103,-0.420774,0.132594,0.857321
932378166,16.214199,6.298544,9.496988,-0.446905,0.230053,0.855284
932398177,10.687324,4.417145,11.714393,-0.503194,0.291879,0.839706
932418187,1.541891,1.224259,8.508040,-0.483232,0.308769,0.842507
932438196,-4.652594,-1.981858,1.916327,-0.483955,0.253996,0.849457
932458206,-4.180729,1.165351,-0.416105,-0.482271,0.216849,0.851902
932478216,-1.964713,1.772867,1.187867,-0.467982,0.195869,0.861801
932498226,1.121251,3.295886,1.677723,-0.455550,0.193124,0.866937
932518234,3.197164,10.442491,3.919410,-0.477205,0.208037,0.853319
932538243,7.772759,8.443716,3.721549,-0.495627,0.205236,0.846097
932558253,8.395885,3.024693,1.813986,-0.474525,0.260700,0.842086
932578263,4.020973,-1.880464,-0.829751,-0.482207,0.257174,0.842282
932598272,0.908155,-4.919836,-1.950950,-0.481806,0.245971,0.844887
932618282,-1.064178,-7.109387,-2.467535,-0.471365,0.244812,0.846307
932638291,-2.685084,-8.047197,-2.295470,-0.477485,0.228244,0.850372
932658301,-3.016948,-6.782259,-0.208478,-0.478107,0.228886,0.852011
932678311,-2.940693,-5.206354,1.829036,-0.474883,0.238294,0.854025
932698322,0.537481,-1.846513,1.480324,-0.483856,0.220142,0.853914
932718332,3.151307,0.484534,0.890748,-0.466152,0.239355,0.851003
932738342,2.498262,0.428507,1.048298,-0.471877,0.246172,0.850855
932758351,1.472601,0.208064,1.196053,-0.467384,0.248189,0.854391
932778361,0.304685,-0.312117,0.931668,-0.468526,0.237928,0.853641
932798370,-0.376138,-0.825374,0.588537,-0.472338,0.238348,0.853745
932818378,0.290066,0.439933,-1.002226,-0.464448,0.243781,0.853462
932838388,-0.199910,0.904542,-0.817198,-0.473142,0.239728,0.852206
932858398,-0.521458,0.320500,-0.386178,-0.472680,0.233719,0.851735
932878408,-0.548811,-0.022486,-0.010893,-0.474591,0.233381,0.852467
932898417,-0.273753,-0.109727,0.346718,-0.473685,0.233002,0.853099
932918427,0.417371,0.113213,0.274588,-0.470724,0.230414,0.851993
932938436,0.445271,0.040306,0.098009,-0.469546,0.243128,0.853748
932958446,-0.447511,-0.688789,-0.266770,-0.472066,0.238713,0.851837
932978456,-0.275579,-0.781223,-0.112273,-0.476217,0.234502,0.850748
932998467,-0.564827,-0.815555,-0.083806,-0.465512,0.238883,0.854089
933018476,-0.971280,-1.015160,-0.283468,-0.469971,0.231761,0.854357
933038486,-1.375777,-1.798325,-0.302288,-0.466221,0.247266,0.852659
933058496,-2.902545,-2.594841,-0.715348,-0.464491,0.247146,0.854198
933078505,-3.262801,-2.718643,-0.853998,-0.476481,0.228318,0.851369
933098515,-2.667745,-1.796305,-0.380983,-0.470637,0.229588,0.854444
933118523,-2.483358,-1.265828,-0.034541,-0.466551,0.228794,0.856429
933138533,-2.226754,-1.168847,0.257942,-0.463972,0.231487,0.855792
933158543,-2.306136,-0.940074,0.225225,-0.465274,0.234951,0.860075
933178552,-2.522244,-0.819377,0.170939,-0.467235,0.232080,0.855985
933198562,-2.357109,-0.920807,-0.031834,-0.472526,0.224063,0.855526
933218572,-1.906768,-0.605498,0.130695,-0.467194,0.221157,0.858320
933238581,-1.583063,-0.090885,0.169838,-0.465680,0.218768,0.858763
933258591,-0.936164,-0.051415,0.080574,-0.467549,0.222167,0.856779
933278601,-0.585869,-0.160067,-0.027461,-0.465842,0.226866,0.859057
933298612,-0.722340,0.010883,-0.280307,-0.468034,0.226448,0.857518
933318621,-0.700170,-0.177281,-0.420563,-0.467553,0.228627,0.856522
933338631,-0.411331,-0.059382,-0.424905,-0.466831,0.221519,0.856775
933358647,-0.027930,0.200015,-0.596289,-0.469816,0.222104,0.858784
933378650,0.100458,0.203342,-0.272121,-0.467427,0.223887,0.859327
933398660,0.160490,0.174725,-0.342271,-0.466825,0.228431,0.857519
933418668,-0.333562,-0.316954,-0.491426,-0.464417,0.231854,0.856976
933438678,-0.803406,-0.575672,-0.842689,-0.466964,0.224793,0.858146
933458688,-0.623449,-0.170364,-1.189860,-0.470005,0.221837,0.857785
933478697,-0.249334,-0.007888,-1.499395,-0.468542,0.222360,0.858054
933498707,-0.032605,0.083219,-0.902085,-0.464908,0.221847,0.859769
933518716,-0.302264,-0.189303,-0.778955,-0.465040,0.226039,0.857599
933538726,-0.733871,-0.341169,-0.673265,-0.462542,0.229002,0.858598
933558736,-0.494959,-0.031577,-1.182836,-0.469662,0.226281,0.860884
933578745,0.178342,0.721167,-2.287689,-0.468336,0.224544,0.856514
933598757,1.273408,2.158297,-2.531866,-0.469185,0.215182,0.858220
933618766,1.808524,4.009215,-1.495682,-0.467702,0.223893,0.858510
933638776,1.377137,2.762810,-0.388557,-0.467835,0.227810,0.857157
933658786,0.559860,1.129498,-0.100202,-0.470110,0.227755,0.856528
933698805,0.260851,-0.226011,-0.502742,-0.471031,0.220218,0.856239
933718813,0.556544,-0.379015,-0.298637,-0.470058,0.218570,0.855051
933738823,1.313504,-0.424395,-0.269966,-0.468045,0.225721,0.857153
933758832,0.825965,-0.778246,-0.006612,-0.468890,0.230373,0.857258
933778842,-0.367294,-1.318588,-0.012316,-0.464007,0.235581,0.855803
933798852,-0.930502,-1.750139,-0.151444,-0.472091,0.229057,0.856628
933818861,-2.085169,-1.957636,0.044889,-0.473658,0.227811,0.855175
933838871,-2.191100,-2.049883,0.440995,-0.467647,0.221070,0.859139
933878890,-2.007406,-1.813166,0.988086,-0.466930,0.220516,0.858408
933898901,-1.792843,-1.478663,1.209181,-0.464354,0.222291,0.860495
933918911,-1.953791,-1.283276,1.284112,-0.470174,0.222472,0.859059
933938921,-1.704393,-1.111723,1.243449,-0.465066,0.224222,0.856958
933958930,-1.776958,-1.033393,1.086600,-0.462881,0.223818,0.859949
933978940,-1.787337,-0.849481,1.044099,-0.463770,0.225286,0.859956
933998950,-1.707665,-0.716062,0.892453,-0.463015,0.220636,0.859942
934018958,-1.771627,-0.661209,0.773059,-0.465612,0.216946,0.859486
934038967,-1.289680,-0.596109,0.854968,-0.464928,0.219748,0.862398
934058977,-1.378339,-0.638223,0.590152,-0.465910,0.214395,0.862297
934078987,-0.774787,-0.450225,0.709391,-0.462704,0.216534,0.861021
934098997,-0.537163,0.042639,0.628413,-0.462214,0.218430,0.864022
934119007,-0.287709,0.251958,0.611146,-0.464094,0.221102,0.861763
934139016,-0.286616,0.129958,0.601607,-0.462036,0.218706,0.861842
934159026,-0.423559,0.203008,0.271219,-0.464397,0.218372,0.863756
934179035,-0.364449,0.092026,0.108577,-0.462695,0.217355,0.860387
934199046,-0.120554,0.140554,0.111712,-0.468019,0.220070,0.861045
934219056,-0.179860,0.039938,0.149412,-0.462235,0.217803,0.860205
934239066,0.047024,0.188189,0.116468,-0.462247,0.216710,0.860929
934279085,0.317451,-0.265481,0.035139,-0.463221,0.218543,0.861209
934299095,0.345350,-0.179555,-0.055330,-0.464747,0.219469,0.863578
934319103,0.392576,-0.089553,0.066695,-0.463808,0.221914,0.862491
934339113,0.198995,0.183011,0.075121,-0.461715,0.222433,0.860942
934359122,0.132620,0.142305,0.174726,-0.462157,0.217169,0.858931
934379132,0.058176,0.404441,0.416084,-0.463195,0.220269,0.862031
934399142,0.107406,0.514736,0.257126,-0.460752,0.219413,0.862294
934439161,0.147811,0.452649,0.338903,-0.463882,0.217194,0.859208
934459171,0.025551,0.307652,0.255632,-0.465225,0.218300,0.861123
934479180,0.003100,0.306983,0.278907,-0.462931,0.219996,0.860485
934499191,0.374845,0.283101,0.141336,-0.463663,0.219643,0.860486
934519201,0.229965,0.182969,0.097261,-0.464396,0.219291,0.860215
934539211,0.041147,0.073065,0.145194,-0.464913,0.221391,0.860040
934559220,0.018357,0.163463,0.200312,-0.463913,0.221284,0.860673
934579230,0.093525,0.248591,0.184833,-0.465577,0.219032,0.861581
934599240,0.055058,0.119845,0.100020,-0.464723,0.222117,0.859587
934619248,-0.166434,0.019085,0.042375,-0.465376,0.220945,0.859495
934639258,-0.006636,0.066763,0.039697,-0.463199,0.220180,0.861395
934659267,-0.076101,-0.001408,-0.035899,-0.463006,0.221272,0.860034
934679277,-0.205480,0.019438,-0.002392,-0.466475,0.219956,0.861131
934699286,0.114639,0.106761,0.014920,-0.463928,0.220468,0.859489
934719296,-0.298538,0.019699,-0.076409,-0.460503,0.217865,0.861472
934739306,0.063008,-0.084565,0.005424,-0.464483,0.219657,0.859943
934759315,-0.175769,-0.130736,-0.127011,-0.463183,0.221639,0.860035
934779325,-0.160401,-0.039891,-0.072704,-0.463018,0.220362,0.860123
934799336,-0.098475,-0.009710,-0.012745,-0.467520,0.217065,0.859219
934819346,0.175890,0.001410,-0.033655,-0.464117,0.219925,0.859489
934839355,0.062359,0.037035,0.037752,-0.462644,0.220992,0.860850
934859365,0.240345,-0.159776,0.053653,-0.464546,0.221843,0.859313
934879375,0.027962,-0.102948,0.157918,-0.465038,0.218845,0.860397
934899385,0.134482,-0.199728,0.085702,-0.462590,0.218353,0.860571
934919392,0.185140,-0.490993,0.178867,-0.462263,0.221800,0.862759
934939403,0.095839,-0.426641,-0.061460,-0.466096,0.221410,0.859498
934959412,-0.192367,-0.318208,0.098451,-0.462538,0.221990,0.861216
934979421,-0.331953,-0.476649,-0.098684,-0.463257,0.223282,0.858404
934999431,-0.591175,-0.389157,-0.030942,-0.464466,0.220931,0.859765
935019441,-0.498040,-0.397051,0.042954,-0.462830,0.220354,0.862212
935039450,-0.584263,-0.274967,-0.006493,-0.462563,0.219895,0.862301
935059460,-0.783545,-0.178193,0.006899,-0.463409,0.218458,0.859846
935079470,-0.225226,-0.074432,0.110582,-0.462311,0.218712,0.860934
935099481,-0.011267,-0.026794,0.144751,-0.463171,0.215724,0.860475
935119490,0.055602,-0.092421,0.013061,-0.461015,0.220513,0.860662
935139500,-0.153593,-0.016368,-0.102887,-0.464602,0.223655,0.862407
935159510,-0.095508,-0.345177,-0.040877,-0.461173,0.221691,0.863210
935179519,-0.240629,-0.521314,-0.534633,-0.459108,0.219566,0.864016
935199548,-0.592070,-0.646094,-0.612675,-0.463518,0.223735,0.860223
935219537,-0.530051,-0.812645,-0.654625,-0.462488,0.219079,0.860845
935239547,-0.589873,-0.602696,-0.475212,-0.461445,0.215423,0.861559
935259556,-0.422909,-0.350295,-0.391214,-0.462110,0.213340,0.861556
935279567,0.052757,-0.173052,-0.178183,-0.461685,0.217515,0.862837
935299576,0.305889,-0.080502,-0.068133,-0.459124,0.218475,0.863832
935319586,0.258704,0.056361,-0.064975,-0.463564,0.219818,0.862394
935339595,0.182901,0.062567,-0.032846,-0.460139,0.217215,0.864377
935359605,0.204529,0.086669,-0.086142,-0.462488,0.218434,0.863751
935379614,0.185691,-0.053401,0.048892,-0.463035,0.218444,0.863207
935399625,0.008763,-0.220590,-0.109572,-0.462995,0.221815,0.861217
935419635,-0.173706,-0.117471,-0.012823,-0.460517,0.216865,0.861197
935439645,0.050610,-0.049513,0.173474,-0.456820,0.214258,0.863269
935459655,0.265380,0.004957,0.253343,-0.462303,0.218889,0.862843
935479664,0.250829,-0.094188,0.236896,-0.461094,0.221240,0.861300
935499681,0.033206,-0.055323,0.059732,-0.465100,0.220478,0.862491
935519682,-0.089743,-0.305586,-0.116395,-0.462277,0.220707,0.863029
935539692,-0.005597,-0.410669,-0.165457,-0.460099,0.220677,0.862205
935559701,-0.133546,-0.444057,-0.087223,-0.462306,0.218984,0.861480
935579711,-0.139804,-0.377314,0.020381,-0.460301,0.218857,0.863654
935599721,-0.479336,-0.287114,-0.115355,-0.462790,0.217084,0.860295
935619730,-0.373057,-0.187029,-0.093259,-0.463497,0.217998,0.862571
935639740,-0.557583,-0.112308,-0.118537,-0.461453,0.214878,0.861285
935659750,-0.409940,-0.226443,-0.047477,-0.462501,0.218446,0.859480
935679761,-0.378971,-0.067653,0.060773,-0.461961,0.216878,0.864563
935699771,-0.401373,-0.015422,0.115284,-0.461365,0.214143,0.863464
935719780,-0.332675,-0.044884,0.098146,-0.460222,0.217762,0.864469
935739790,-0.509468,-0.181939,-0.037043,-0.462867,0.217533,0.862659
935759800,-0.318045,-0.112204,0.028362,-0.462044,0.217700,0.863566
935779809,-0.425789,-0.082389,0.000733,-0.460515,0.216495,0.863558
935799826,-0.174953,0.019796,-0.003041,-0.461311,0.217869,0.864654
935819827,-0.143997,0.050020,0.034778,-0.463044,0.217992,0.862206
935839837,-0.258943,-0.049221,-0.040331,-0.462127,0.218523,0.862568
935859847,-0.343517,-0.132837,-0.115846,-0.461427,0.216236,0.863560
935879856,-0.184317,-0.069492,-0.141070,-0.461496,0.217875,0.863474
935899866,-0.070076,0.113582,-0.057029,-0.460220,0.218036,0.864015
935919875,-0.344405,0.026796,-0.075315,-0.461008,0.213866,0.862826
935939885,-0.290132,0.102288,0.008324,-0.461296,0.218960,0.864657
935959895,-0.140049,0.023179,-0.170971,-0.461139,0.217691,0.862200
935979906,-0.093280,-0.014985,-0.142166,-0.461639,0.214516,0.861467
936019925,-0.070174,0.007783,-0.119499,-0.461412,0.217603,0.862564
